time,seconds_elapsed,z,y,x
1773200109036937500,0.4639375,-0.36782264709472656,-0.08690547943115234,0.05129539966583252
1773200109052927000,0.479927001953125,-0.12096881866455078,0.02499246597290039,0.060945868492126465
1773200109068917200,0.495917236328125,0.10770225524902344,-0.0030488967895507812,0.09820282459259033
1773200109084909600,0.51190966796875,0.08788871765136719,-0.17604947090148926,0.16753345727920532
1773200109100930600,0.5279306640625,-0.04664802551269531,-0.32719647884368896,0.25278812646865845
1773200109116345900,0.543345947265625,-0.08177757263183594,-0.25785911083221436,0.21443802118301392
1773200109132914000,0.559913818359375,-0.07016944885253906,-0.15088140964508057,0.06620216369628906
1773200109148934400,0.575934326171875,-0.24831676483154297,-0.0948786735534668,0.00765228271484375
1773200109164925700,0.59192578125,-0.24370479583740234,-0.029348373413085938,0.030531585216522217
1773200109204935700,0.631935791015625,0.048981666564941406,-0.15493524074554443,-0.05398595333099365
1773200109220927700,0.647927734375,0.02439403533935547,-0.227669358253479,0.06677377223968506
1773200109236918800,0.663918701171875,0.014224052429199219,-0.05890095233917236,-0.09415555000305176
1773200109252940300,0.679940185546875,-0.08083629608154297,0.024100422859191895,-0.23322677612304688
1773200109268931000,0.69593115234375,-0.29952335357666016,0.08423399925231934,-0.24129164218902588
1773200109284921900,0.711921875,-0.2889595031738281,0.1134864091873169,-0.21581530570983887
1773200109300914700,0.727914794921875,-0.16848182678222656,0.02138495445251465,-0.08664202690124512
1773200109316935700,0.743935791015625,-0.014981269836425781,0.018023014068603516,-0.16776204109191895
1773200109332936000,0.75993603515625,0.026498794555664062,-0.004375100135803223,-0.3432115316390991
1773200109348915000,0.7759150390625,-0.07775306701660156,0.012715578079223633,-0.40790486335754395
1773200109364937700,0.791937744140625,-0.27666664123535156,-0.010277509689331055,-0.32927167415618896
1773200109380930600,0.8079306640625,-0.34034252166748047,0.07504141330718994,-0.24960696697235107
1773200109396921900,0.823921875,-0.27739524841308594,0.15188372135162354,-0.2825843095779419
1773200109420939500,0.847939453125,-0.08041667938232422,0.163840651512146,-0.3575090169906616
1773200109436932000,0.86393212890625,-0.030324935913085938,0.1902449131011963,-0.528289794921875
1773200109452921600,0.879921630859375,-0.08284759521484375,0.23545050621032715,-0.5085504055023193
1773200109468943400,0.895943359375,-0.1136474609375,0.23951518535614014,-0.35109269618988037
1773200109484936000,0.91193603515625,-0.029793739318847656,0.23835134506225586,-0.2574065923690796
1773200109500927700,0.927927734375,0.09695911407470703,0.253373384475708,-0.20507371425628662
1773200109516918300,0.943918212890625,0.17507076263427734,0.23510205745697021,-0.12581264972686768
1773200109532937700,0.959937744140625,0.10798263549804688,0.26277339458465576,-0.1305999755859375
1773200109548931300,0.975931396484375,-0.10555362701416016,0.2885473966598511,-0.15351462364196777
1773200109564919800,0.991919921875,-0.3885812759399414,0.3065948486328125,-0.14372193813323975
1773200109580910800,1.007910888671875,-0.36919498443603516,0.30665624141693115,-0.0958324670791626
1773200109596935200,1.02393505859375,-0.16086959838867188,0.2216130495071411,-0.10107231140136719
1773200109612926500,1.039926513671875,-0.06228923797607422,0.11808431148529053,-0.029898881912231445
1773200109628916500,1.05591650390625,-0.19778060913085938,0.10153567790985107,0.1977367401123047
1773200109644939800,1.071939697265625,-0.20529937744140625,0.17307627201080322,0.25763022899627686
1773200109660928000,1.087927978515625,-0.13195419311523438,0.21045756340026855,-0.01616835594177246
1773200109676920600,1.103920654296875,0.0740957260131836,0.26127588748931885,-0.34058380126953125
1773200109692912000,1.119912109375,0.25975608825683594,0.26748764514923096,-0.42854559421539307
1773200109708934100,1.13593408203125,0.3990345001220703,0.3013935089111328,-0.4072835445404053
1773200109724924700,1.151924560546875,0.4247732162475586,0.37443363666534424,-0.33989477157592773
1773200109740916000,1.167916015625,0.42010974884033203,0.39994513988494873,-0.3352665901184082
1773200109756938200,1.183938232421875,0.26323986053466797,0.38276660442352295,-0.32242631912231445
1773200109772928500,1.199928466796875,0.04973125457763672,0.4061002731323242,-0.26480722427368164
1773200109788921900,1.215921875,-0.05062389373779297,0.33183741569519043,-0.19154489040374756
1773200109804944000,1.23194384765625,-0.03069305419921875,0.2575262784957886,-0.19695746898651123
1773200109820935200,1.24793505859375,-0.05138111114501953,0.26450490951538086,-0.33626532554626465
1773200109836925200,1.26392529296875,-0.011409759521484375,0.25628936290740967,-0.41742944717407227
1773200109852914200,1.2799140625,0.1499166488647461,0.17087674140930176,-0.35238397121429443
1773200109868936400,1.2959365234375,0.2987823486328125,0.07519078254699707,-0.14684247970581055
1773200109884927500,1.311927490234375,0.31055736541748047,-0.0030531883239746094,-0.11835289001464844
1773200109900919800,1.327919921875,0.33460044860839844,-0.0354924201965332,-0.16700303554534912
1773200109916942300,1.3439423828125,0.49339866638183594,-0.21908128261566162,-0.12634754180908203
1773200109932933000,1.35993310546875,0.720118522644043,-0.4483557939529419,0.12189841270446777
1773200109948923100,1.375923095703125,0.7133712768554688,-0.6730592250823975,0.3179584741592407
1773200109964915500,1.39191552734375,0.5281047821044922,-0.7733422517776489,0.32704854011535645
1773200109980935700,1.407935791015625,0.22077655792236328,-0.7153182029724121,0.3096613883972168
1773200109996929500,1.423929443359375,0.002452850341796875,-0.5694633722305298,0.3146688938140869
1773200110012919300,1.439919189453125,-0.1646575927734375,-0.4173365831375122,0.12948429584503174
1773200110028942600,1.455942626953125,-0.20059871673583984,-0.21427607536315918,-0.1407604217529297
1773200110044931800,1.471931884765625,-0.08361434936523438,-0.13769137859344482,-0.26750290393829346
1773200110060924400,1.48792431640625,0.09846115112304688,-0.13686156272888184,-0.32875120639801025
1773200110076916200,1.503916259765625,0.18089675903320312,-0.1471850872039795,-0.29440319538116455
1773200110092936400,1.5199365234375,0.29953861236572266,-0.2535817623138428,-0.0973120927810669
1773200110108928000,1.535927978515625,0.25858497619628906,-0.39043474197387695,0.1511601209640503
1773200110124920600,1.551920654296875,0.2089986801147461,-0.49478328227996826,0.3970298767089844
1773200110140942300,1.5679423828125,0.08383560180664062,-0.5207475423812866,0.40381932258605957
1773200110156931600,1.583931640625,-0.06717300415039062,-0.513542652130127,0.48615598678588867
1773200110172924200,1.599924072265625,-0.2676229476928711,-0.464603066444397,0.45827627182006836
1773200110188915700,1.615915771484375,-0.43404674530029297,-0.4265434741973877,0.4363147020339966
1773200110204937500,1.6319375,-0.41351985931396484,-0.38000738620758057,0.2946363687515259
1773200110220927500,1.647927490234375,-0.244232177734375,-0.37768030166625977,0.2565501928329468
1773200110236920000,1.663920166015625,-0.14689350128173828,-0.30685973167419434,0.12029051780700684
1773200110252941800,1.67994189453125,-0.1097555160522461,-0.19638943672180176,-0.017636418342590332
1773200110268931000,1.69593115234375,-0.0352630615234375,-0.13731634616851807,-0.07657098770141602
1773200110284921600,1.711921630859375,0.08408927917480469,-0.2076106071472168,0.11219000816345215
1773200110300915000,1.7279150390625,0.07051849365234375,-0.23324477672576904,0.2616218328475952
1773200110316936400,1.7439365234375,0.012112617492675781,-0.21105945110321045,0.39807021617889404
1773200110332926000,1.759926025390625,0.045111656188964844,-0.1538856029510498,0.24630558490753174
1773200110348919300,1.775919189453125,0.008555412292480469,-0.1615678071975708,0.17198312282562256
1773200110364938800,1.791938720703125,-0.16094684600830078,-0.22686922550201416,0.40650254487991333
1773200110380930600,1.8079306640625,-0.39888954162597656,-0.23093914985656738,0.6746143102645874
1773200110396923000,1.8239228515625,-0.5437736511230469,-0.21575510501861572,0.692960798740387
1773200110412913700,1.83991357421875,-0.4291553497314453,-0.15926194190979004,0.5030122995376587
1773200110428613000,1.855613037109375,-0.24714088439941406,-0.14810824394226074,0.37149274349212646
1773200110444925000,1.871925048828125,0.061847686767578125,-0.04090416431427002,0.14103806018829346
1773200110460917200,1.887917236328125,0.4778451919555664,0.08801662921905518,-0.2370152473449707
1773200110476940300,1.903940185546875,0.6345977783203125,0.08617115020751953,-0.2192068099975586
1773200110492929500,1.919929443359375,0.3715553283691406,0.0970304012298584,0.08430290222167969
1773200110508922000,1.935922119140625,0.026192665100097656,0.12210285663604736,0.25349491834640503
1773200110524944100,1.951944091796875,-0.2702150344848633,0.013759851455688477,0.40197157859802246
1773200110540935000,1.967934814453125,-0.42588138580322266,-0.01712179183959961,0.37999236583709717
1773200110556927700,1.983927734375,-0.3606605529785156,-0.03613400459289551,0.25252318382263184
1773200110572916200,1.999916259765625,-0.2716217041015625,-0.18777179718017578,0.2333793044090271
1773200110588941000,2.015941162109375,-0.14237689971923828,-0.18417572975158691,0.23597729206085205
1773200110604931600,2.031931640625,-0.0160369873046875,-0.18318140506744385,0.2937996983528137
1773200110620923000,2.0479228515625,-0.05547046661376953,-0.28946030139923096,0.4680396318435669
1773200110636944000,2.06394384765625,-0.1864938735961914,-0.2528928518295288,0.5128486752510071
1773200110652936000,2.07993603515625,-0.2582883834838867,-0.16022121906280518,0.47539347410202026
1773200110668924400,2.09592431640625,-0.2836952209472656,-0.09411907196044922,0.35978513956069946
1773200110684915500,2.11191552734375,-0.24884605407714844,0.026447057723999023,0.32219868898391724
1773200110700940000,2.12793994140625,-0.2925453186035156,0.22271549701690674,0.33861756324768066
1773200110716929500,2.143929443359375,-0.3698768615722656,0.33357059955596924,0.47052204608917236
1773200110732920800,2.1599208984375,-0.507908821105957,0.39494311809539795,0.5633611679077148
1773200110748941600,2.175941650390625,-0.6206569671630859,0.4696894884109497,0.6357791423797607
1773200110764934100,2.19193408203125,-0.5889253616333008,0.36271703243255615,0.7942551970481873
1773200110788920600,2.215920654296875,-0.23008441925048828,0.2869819402694702,0.722206711769104
1773200110804942600,2.231942626953125,0.1550312042236328,0.15751755237579346,0.53139328956604
1773200110820935400,2.247935302734375,0.7023687362670898,0.13988196849822998,0.30489134788513184
1773200110836926000,2.263926025390625,0.9772558212280273,0.1704782247543335,0.08582711219787598
1773200110852915500,2.27991552734375,0.9656658172607422,0.2746546268463135,-0.10434401035308838
1773200110868939500,2.295939453125,0.5957555770874023,0.3478618860244751,-0.21608299016952515
1773200110884928000,2.311927978515625,0.04599189758300781,0.3627866506576538,-0.16880452632904053
1773200110900920600,2.327920654296875,-0.41242408752441406,0.317258358001709,-0.07024925947189331
1773200110916943000,2.343943115234375,-0.6176738739013672,0.34014439582824707,0.021679699420928955
1773200110932933600,2.35993359375,-0.6388368606567383,0.35612380504608154,0.10651642084121704
1773200110948923100,2.375923095703125,-0.6327943801879883,0.3481929302215576,0.25074297189712524
1773200110964917200,2.391917236328125,-0.5556678771972656,0.3880481719970703,0.3634895086288452
1773200110980938200,2.407938232421875,-0.4377117156982422,0.3277052640914917,0.45986995100975037
1773200110996929500,2.423929443359375,-0.2287588119506836,0.2151625156402588,0.45873770117759705
1773200111012921000,2.439921142578125,-0.0628499984741211,0.2167670726776123,0.3716881275177002
1773200111028942000,2.455942138671875,0.22982406616210938,0.17545270919799805,0.2730879783630371
1773200111044933600,2.47193359375,0.4429044723510742,0.22770071029663086,0.08399182558059692
1773200111060926200,2.48792626953125,0.5724802017211914,0.39181995391845703,0.30119991302490234
1773200111076915200,2.503915283203125,0.32000160217285156,0.44976556301116943,0.43473052978515625
1773200111092936700,2.519936767578125,0.14503765106201172,0.4965864419937134,0.5231482982635498
1773200111108930600,2.5359306640625,0.11280441284179688,0.6401767730712891,0.4413617253303528
1773200111124920800,2.5519208984375,0.074859619140625,0.6770730018615723,0.16328799724578857
1773200111140940800,2.56794091796875,0.21780776977539062,0.7681313753128052,-0.12501192092895508
1773200111156933400,2.583933349609375,0.35064029693603516,0.7479953765869141,-0.17425811290740967
1773200111172922600,2.599922607421875,0.40526390075683594,0.7678447961807251,-0.1867072582244873
1773200111188915200,2.615915283203125,0.39759159088134766,0.8556069135665894,-0.3442577123641968
1773200111204938000,2.63193798828125,0.213226318359375,0.7971768379211426,-0.5277688503265381
1773200111220927000,2.647927001953125,-0.009614944458007812,0.8464332818984985,-0.3968319892883301
1773200111236919600,2.66391943359375,-0.027317047119140625,0.9135428667068481,-0.2647906541824341
1773200111252942600,2.679942626953125,0.0656747817993164,0.9295985698699951,-0.20176100730895996
1773200111268933000,2.69593310546875,0.26110267639160156,0.9606336355209351,-0.18298768997192383
1773200111284922000,2.711922119140625,0.3252086639404297,0.9808328151702881,-0.13722145557403564
1773200111300914200,2.7279140625,0.293487548828125,0.9119555950164795,0.1529850959777832
1773200111316937500,2.7439375,0.2620992660522461,0.7593183517456055,0.28056150674819946
1773200111332928500,2.759928466796875,0.4207801818847656,0.4776735305786133,0.3665502071380615
1773200111348919300,2.775919189453125,0.903264045715332,0.26146137714385986,0.37172645330429077
1773200111364939500,2.791939453125,1.4547958374023438,0.0154876708984375,0.3391076326370239
1773200111380933000,2.80793310546875,1.6330757141113281,-0.11626756191253662,0.2766474485397339
1773200111396923600,2.823923583984375,1.4689979553222656,-0.16615724563598633,0.2300422191619873
1773200111412915500,2.83991552734375,1.4087114334106445,-0.4013768434524536,0.03055441379547119
1773200111428935200,2.85593505859375,1.3018732070922852,-0.7364557981491089,-0.05731678009033203
1773200111444927200,2.87192724609375,0.7633504867553711,-1.0283995866775513,0.2659149169921875
1773200111460920000,2.887920166015625,-0.1633453369140625,-1.2862837314605713,0.6412646174430847
1773200111476941000,2.903941162109375,-1.1591987609863281,-1.4663342237472534,0.8096379041671753
1773200111492932000,2.91993212890625,-1.8334598541259766,-1.4493167400360107,0.6272526383399963
1773200111508923600,2.935923583984375,-2.0641403198242188,-1.5544465780258179,0.6571964025497437
1773200111524913200,2.9519130859375,-1.9479632377624512,-1.7876253128051758,0.8632820248603821
1773200111540935400,2.967935302734375,-1.4803762435913086,-1.911287546157837,1.0175018310546875
1773200111564923400,2.99192333984375,-0.4320831298828125,-1.858893871307373,0.5470700263977051
1773200111580913400,3.007913330078125,0.11745452880859375,-1.7540374994277954,0.4221329689025879
1773200111596936400,3.0239365234375,0.2631111145019531,-1.456053376197815,0.3326590061187744
1773200111612927500,3.039927490234375,0.21983051300048828,-1.0235114097595215,-0.0683661699295044
1773200111628919000,3.0559189453125,0.12797927856445312,-0.74840247631073,-0.6321766376495361
1773200111644939800,3.071939697265625,-0.12067508697509766,-0.6752148866653442,-0.9606001377105713
1773200111660931800,3.087931884765625,-0.3970966339111328,-0.4608672857284546,-1.180296778678894
1773200111676921900,3.103921875,-0.4949455261230469,-0.20914387702941895,-1.7377727031707764
1773200111692942600,3.119942626953125,-0.21244144439697266,0.07773113250732422,-2.5830740928649902
1773200111708935400,3.135935302734375,0.05074119567871094,0.12213349342346191,-2.8533787727355957
1773200111724927200,3.15192724609375,0.2001953125,0.19446063041687012,-2.656113862991333
1773200111740918300,3.167918212890625,0.3087778091430664,0.16874980926513672,-2.174823760986328
1773200111756940300,3.183940185546875,0.25566768646240234,0.09099435806274414,-1.671699047088623
1773200111772931300,3.199931396484375,-0.04813957214355469,-0.011545181274414062,-1.096372127532959
1773200111788920800,3.2159208984375,-0.4034872055053711,-0.2181549072265625,-0.4374089241027832
1773200111804943000,3.231943115234375,-0.6359167098999023,-0.4474598169326782,0.2648977041244507
1773200111820936400,3.2479365234375,-0.6646528244018555,-0.627854585647583,0.741753339767456
1773200111836926500,3.263926513671875,-0.6366157531738281,-0.7903546094894409,0.9280856847763062
1773200111852915500,3.27991552734375,-0.5789308547973633,-0.7401076555252075,0.8389472961425781
1773200111868937000,3.29593701171875,-0.4324026107788086,-0.7148746252059937,0.7321814298629761
1773200111884929800,3.3119296875,-0.12328624725341797,-0.6416362524032593,0.5641465187072754
1773200111900919600,3.32791943359375,0.15762805938720703,-0.5321230888366699,0.28536391258239746
1773200111916943600,3.343943603515625,0.32103919982910156,-0.38664257526397705,0.02693772315979004
1773200111932934400,3.359934326171875,0.43892860412597656,-0.2944694757461548,-0.18912148475646973
1773200111948926200,3.37592626953125,0.3928260803222656,-0.2259976863861084,-0.5331935882568359
1773200111964917000,3.3919169921875,0.2111043930053711,-0.1345987319946289,-0.7995190620422363
1773200111980938500,3.4079384765625,0.05877399444580078,-0.12580370903015137,-0.8950424194335938
1773200111996930300,3.423930419921875,-0.21887683868408203,-0.237837553024292,-0.7841193675994873
1773200112012920300,3.43992041015625,-0.3296394348144531,-0.25886785984039307,-0.6533546447753906
1773200112028941000,3.455941162109375,-0.5240535736083984,-0.20680475234985352,-0.5544114112854004
1773200112044933000,3.47193310546875,-0.5730190277099609,-0.17169427871704102,-0.5936985015869141
1773200112060924700,3.487924560546875,-0.547184944152832,-0.1908411979675293,-0.5528755187988281
1773200112076917200,3.503917236328125,-0.33394527435302734,-0.10177731513977051,-0.3798043727874756
1773200112092937200,3.519937255859375,-0.14145755767822266,-0.2296384572982788,-0.2578713893890381
1773200112108930300,3.535930419921875,0.08858871459960938,-0.30782628059387207,-0.303037166595459
1773200112124920300,3.55192041015625,0.38538646697998047,-0.15587103366851807,-0.4391026496887207
1773200112140940500,3.5679404296875,0.5114011764526367,0.040964365005493164,-0.4724893569946289
1773200112156932900,3.583932861328125,0.565669059753418,0.1630479097366333,-0.5720298290252686
1773200112172925200,3.59992529296875,0.43251800537109375,0.32292914390563965,-0.8155961036682129
1773200112188915700,3.615915771484375,0.4257049560546875,0.261688232421875,-0.8998284339904785
1773200112204937500,3.6319375,0.35233497619628906,0.05133533477783203,-0.7215542793273926
1773200112220929300,3.64792919921875,0.22029399871826172,-0.11861395835876465,-0.6688036918640137
1773200112236921300,3.66392138671875,-0.2822580337524414,-0.05864715576171875,-0.558941125869751
1773200112252941600,3.679941650390625,-0.6448602676391602,0.023640155792236328,-0.41855764389038086
1773200112268931600,3.695931640625,-0.8156447410583496,0.10916304588317871,-0.42540454864501953
1773200112284925200,3.71192529296875,-0.21621417999267578,0.2883610725402832,0.20728731155395508
1773200112300916700,3.727916748046875,0.07145023345947266,0.2338275909423828,0.6314182281494141
1773200112316938800,3.743938720703125,0.1849803924560547,-0.0337831974029541,0.35264158248901367
1773200112332927700,3.759927734375,0.07991695404052734,0.08516263961791992,-0.050444602966308594
1773200112348919000,3.7759189453125,-0.12996864318847656,0.24459314346313477,-0.1003103256225586
1773200112364938200,3.791938232421875,-0.5915942192077637,0.2471175193786621,0.1338658332824707
1773200112380930000,3.807929931640625,-0.8920712471008301,0.2173311710357666,0.5925941467285156
1773200112396925200,3.82392529296875,-0.7593159675598145,0.23818516731262207,0.6476683616638184
1773200112412944000,3.83994384765625,-0.43030405044555664,0.16238760948181152,0.3342437744140625
1773200112428937200,3.855937255859375,0.12112998962402344,0.21338248252868652,-0.41259050369262695
1773200112444928000,3.871927978515625,0.3505697250366211,0.12444424629211426,-0.8583054542541504
1773200112460917800,3.887917724609375,0.4872617721557617,0.06318426132202148,-0.6246914863586426
1773200112476942000,3.903942138671875,0.5922183990478516,0.07237458229064941,-0.3696436882019043
1773200112492931000,3.91993115234375,0.2530498504638672,-0.0587458610534668,-0.0335240364074707
1773200112508922400,3.93592236328125,-0.055156707763671875,-0.1836106777191162,0.4726543426513672
1773200112524945000,3.95194482421875,-0.3173666000366211,-0.26230311393737793,0.42536497116088867
1773200112540935700,3.967935791015625,-0.2157454490661621,-0.21544814109802246,0.1512312889099121
1773200112556927500,3.983927490234375,-0.12996482849121094,-0.22242164611816406,0.12079429626464844
1773200112572917500,3.99991748046875,-0.28710174560546875,-0.527320384979248,0.8188295364379883
1773200112588941600,4.015941650390625,0.29406166076660156,-0.1971437931060791,0.7924485206604004
1773200112604932600,4.0319326171875,0.5279684066772461,-0.2813537120819092,0.04941511154174805
1773200112620923400,4.04792333984375,0.3849344253540039,-0.3417191505432129,0.03184938430786133
1773200112636915000,4.0639150390625,-0.025381088256835938,-0.11164498329162598,0.3242683410644531
1773200112652936000,4.07993603515625,-0.24727106094360352,-0.07218289375305176,0.1975870132446289
1773200112668925700,4.09592578125,0.1212911605834961,0.024076223373413086,-0.10027790069580078
1773200112684918000,4.11191796875,0.4404010772705078,-0.018457412719726562,-0.1582942008972168
1773200112700940800,4.12794091796875,0.17582321166992188,-0.027664899826049805,-0.024982452392578125
1773200112716931300,4.143931396484375,-0.16419506072998047,0.09455418586730957,-0.02995014190673828
1773200112732920800,4.1599208984375,-0.474393367767334,0.16548514366149902,-0.31574058532714844
1773200112748942600,4.175942626953125,-0.14075613021850586,0.10459256172180176,-0.3021831512451172
1773200112764935200,4.19193505859375,0.1850128173828125,-0.09827470779418945,-0.20730829238891602
1773200112780926500,4.207926513671875,0.23221492767333984,-0.06366777420043945,0.1690845489501953
1773200112796917500,4.22391748046875,0.042891502380371094,-0.027771949768066406,0.08630180358886719
1773200112812939300,4.239939208984375,-0.06101036071777344,0.2629969120025635,-0.10172176361083984
1773200112828930300,4.255930419921875,0.19338035583496094,0.19095778465270996,0.019861698150634766
1773200112844921300,4.27192138671875,0.5130605697631836,0.20244717597961426,0.06261348724365234
1773200112860912400,4.287912353515625,0.43462562561035156,0.17609882354736328,-0.059246063232421875
1773200112876936200,4.303936279296875,-0.012851715087890625,0.1881880760192871,-0.22270965576171875
1773200112892926200,4.31992626953125,-0.6443939208984375,0.31055593490600586,-0.3799304962158203
1773200112908919000,4.3359189453125,-1.0269794464111328,0.3273000717163086,-0.2264232635498047
1773200112924938800,4.351938720703125,-0.9794197082519531,0.2555418014526367,-0.2889852523803711
1773200112940930000,4.367929931640625,-0.7440176010131836,0.16183257102966309,-0.2861323356628418
1773200112956921900,4.383921875,-0.505864143371582,0.07726931571960449,-0.36371898651123047
1773200112972944600,4.399944580078125,-0.49193334579467773,0.03449892997741699,-0.11120891571044922
1773200112988934400,4.415934326171875,-0.43380308151245117,-0.15593338012695312,0.18694591522216797
1773200113004924400,4.43192431640625,-0.3704385757446289,-0.19695115089416504,0.36664366722106934
1773200113020915500,4.44791552734375,-0.20390892028808594,-0.31895899772644043,0.26184701919555664
1773200113036940000,4.46393994140625,0.06617546081542969,-0.30360937118530273,0.23328447341918945
1773200113052930000,4.479929931640625,-0.27615785598754883,-0.1924736499786377,0.13209247589111328
1773200113068919600,4.49591943359375,-0.5939750671386719,0.060930490493774414,0.10749387741088867
1773200113084943400,4.511943359375,-0.8945770263671875,0.020685672760009766,0.11001920700073242
1773200113100933600,4.52793359375,-0.8152894973754883,0.1398005485534668,0.10380077362060547
1773200113116925200,4.54392529296875,-0.3627743721008301,0.12274503707885742,-0.09294366836547852
1773200113132916000,4.559916015625,0.20046710968017578,-0.10645771026611328,0.02275848388671875
1773200113148936700,4.575936767578125,0.4394826889038086,0.028187274932861328,0.12700843811035156
1773200113164928800,4.5919287109375,0.19931411743164062,0.10525107383728027,-0.017601966857910156
1773200113180920600,4.607920654296875,-0.1685781478881836,0.03654193878173828,0.3063163757324219
1773200113196943400,4.623943359375,-0.35285043716430664,0.13397836685180664,0.1194314956665039
1773200113212935000,4.639934814453125,-0.4204106330871582,0.09451031684875488,-0.009807109832763672
1773200113228924400,4.65592431640625,-0.40911102294921875,0.0060520172119140625,0.07943964004516602
1773200113244917500,4.67191748046875,-0.44809532165527344,-0.019503355026245117,0.25970888137817383
1773200113260937700,4.687937744140625,-0.3658766746520996,-0.06740045547485352,0.5100243091583252
1773200113276929800,4.7039296875,0.09868526458740234,-0.1212160587310791,0.5944986343383789
1773200113292919800,4.719919921875,0.4855985641479492,-0.06448101997375488,0.7363393306732178
1773200113308940800,4.73594091796875,0.4588613510131836,-0.15461063385009766,0.8202881813049316
1773200113324933400,4.751933349609375,0.5877256393432617,-0.17674827575683594,0.5885708332061768
1773200113340924200,4.767924072265625,0.5784244537353516,-0.11626505851745605,0.38446855545043945
1773200113356916500,4.78391650390625,0.30748653411865234,-0.09908461570739746,0.24927115440368652
1773200113372907500,4.799907470703125,-0.014649391174316406,-0.07544827461242676,0.2921938896179199
1773200113388928500,4.815928466796875,-0.31961822509765625,-0.04999589920043945,0.27177906036376953
1773200113404921300,4.83192138671875,-0.21753501892089844,0.10301971435546875,0.05689215660095215
1773200113420940800,4.84794091796875,-0.08754348754882812,0.0748591423034668,0.028267383575439453
1773200113436933400,4.863933349609375,-0.028909683227539062,0.08083558082580566,0.04867076873779297
1773200113452923000,4.8799228515625,0.1918506622314453,0.12098002433776855,-0.0731194019317627
1773200113468914400,4.89591455078125,0.28543949127197266,0.19538640975952148,-0.31632137298583984
1773200113484937200,4.911937255859375,0.14081382751464844,0.18551898002624512,-0.2917594909667969
1773200113500928300,4.92792822265625,-0.07139396667480469,0.15929341316223145,-0.19469046592712402
1773200113516920800,4.9439208984375,-0.24345970153808594,0.12545299530029297,-0.17644596099853516
1773200113532940500,4.9599404296875,-0.33705711364746094,0.09235668182373047,-0.2066962718963623
1773200113548932400,4.975932373046875,-0.39295482635498047,0.0603179931640625,-0.07462382316589355
1773200113564921900,4.991921875,-0.44720029830932617,-0.06565523147583008,0.10193777084350586
1773200113580914000,5.007913818359375,-0.3421516418457031,-0.1181790828704834,0.15941381454467773
1773200113596937000,5.02393701171875,-0.17578983306884766,-0.08759117126464844,-0.0015730857849121094
1773200113612927500,5.039927490234375,0.04146385192871094,-0.09873747825622559,-0.18665480613708496
1773200113628917500,5.05591748046875,0.046227455139160156,-0.09833073616027832,-0.1823110580444336
1773200113644940800,5.07194091796875,-0.005129814147949219,-0.12667417526245117,-0.1320478916168213
1773200113660932600,5.0879326171875,-0.0787210464477539,-0.06414628028869629,-0.10308837890625
1773200113676924200,5.103924072265625,-0.27958011627197266,-0.08464241027832031,-0.021254539489746094
1773200113692944100,5.119944091796875,-0.20885276794433594,-0.0017659664154052734,-0.03597712516784668
1773200113708934700,5.1359345703125,-0.1571197509765625,-0.024606704711914062,-0.16135883331298828
1773200113724928000,5.151927978515625,0.025086402893066406,0.009392261505126953,-0.30243778228759766
1773200113740919800,5.167919921875,0.19362258911132812,0.019147157669067383,-0.528529167175293
1773200113756941000,5.183941162109375,0.16927623748779297,0.11199450492858887,-0.5049088001251221
1773200113772929300,5.19992919921875,-0.07988357543945312,0.11718869209289551,-0.28361082077026367
1773200113788923100,5.215923095703125,-0.2785491943359375,0.12529754638671875,-0.11066699028015137
1773200113804944000,5.23194384765625,-0.37032508850097656,0.11689543724060059,-0.07107734680175781
1773200113820935400,5.247935302734375,-0.2942333221435547,0.020123004913330078,0.052147626876831055
1773200113836928300,5.26392822265625,-0.13720321655273438,-0.07979202270507812,0.15320253372192383
1773200113852917200,5.279917236328125,0.038269996643066406,-0.17000079154968262,0.0774836540222168
1773200113868939500,5.295939453125,0.10172748565673828,-0.09410810470581055,-0.21855998039245605
1773200113884932000,5.31193212890625,-0.07455825805664062,-0.08506989479064941,-0.21922564506530762
1773200113900922400,5.32792236328125,-0.38435935974121094,-0.044310808181762695,-0.1237192153930664
1773200113916944600,5.343944580078125,-0.5812435150146484,-0.061216115951538086,-0.08741617202758789
1773200113932933400,5.359933349609375,-0.5690493583679199,0.004761695861816406,-0.06752967834472656
1773200113948927700,5.375927734375,-0.55780029296875,0.2091047763824463,-0.27464866638183594
1773200113964917200,5.391917236328125,-0.5793218612670898,0.4168236255645752,-0.4413309097290039
1773200113980938200,5.407938232421875,-0.3854966163635254,0.6088552474975586,-0.64630126953125
1773200113996931800,5.423931884765625,-0.4022822380065918,0.671140193939209,-0.4748191833496094
1773200114012922400,5.43992236328125,-0.3544344902038574,0.6266036033630371,-0.030338287353515625
1773200114028943000,5.455943115234375,-0.0746002197265625,0.561225175857544,0.35944461822509766
1773200114044934400,5.471934326171875,0.2899045944213867,0.442380428314209,0.540090799331665
1773200114060927500,5.487927490234375,0.5237283706665039,0.32630205154418945,0.7125883102416992
1773200114076918300,5.503918212890625,0.7641153335571289,0.12706494331359863,0.9015605449676514
1773200114092938500,5.5199384765625,0.8050861358642578,0.00920724868774414,0.8462545871734619
1773200114116927500,5.543927490234375,0.298797607421875,-0.12104606628417969,1.0242745876312256
1773200114132916500,5.55991650390625,-0.03482818603515625,-0.2129688262939453,1.2021081447601318
1773200114148938500,5.5759384765625,-0.19235897064208984,-0.23289895057678223,1.2384252548217773
1773200114164931000,5.59193115234375,-0.37021446228027344,-0.18387627601623535,1.1652615070343018
1773200114180920800,5.6079208984375,-0.5343236923217773,-0.16832637786865234,0.9979550838470459
1773200114196943000,5.623943115234375,-0.5501432418823242,-0.03718924522399902,0.5448942184448242
1773200114212934100,5.63993408203125,-0.5555391311645508,0.11736774444580078,0.26212191581726074
1773200114228923600,5.655923583984375,-0.6146254539489746,0.17681336402893066,0.1781024932861328
1773200114244918300,5.671918212890625,-0.48685264587402344,0.2485489845275879,0.21130943298339844
1773200114260938200,5.687938232421875,-0.19817829132080078,0.41326236724853516,0.01831364631652832
1773200114276930300,5.703930419921875,0.10530471801757812,0.5802717208862305,-0.3582651615142822
1773200114292920300,5.71992041015625,0.5699625015258789,0.7201647758483887,-0.6514556407928467
1773200114308941300,5.73594140625,0.8810129165649414,0.71205735206604,-0.7790956497192383
1773200114324935000,5.751934814453125,0.780430793762207,0.6735432147979736,-0.6151299476623535
1773200114340925000,5.767925048828125,0.5170602798461914,0.5411016941070557,-0.35439038276672363
1773200114356947000,5.783947021484375,0.25684642791748047,0.4182131290435791,-0.10484194755554199
1773200114372938800,5.799938720703125,0.03048229217529297,0.28546833992004395,0.019186973571777344
1773200114388905200,5.8159052734375,-0.1726398468017578,0.19814491271972656,0.041135549545288086
1773200114404895000,5.83189501953125,-0.15548992156982422,0.0645298957824707,-0.03875374794006348
1773200114420916700,5.847916748046875,0.021556854248046875,-0.009509563446044922,-0.1243445873260498
1773200114436909600,5.86390966796875,-0.09457588195800781,-0.03500056266784668,-0.0657813549041748
1773200114452901400,5.8799013671875,-0.11576080322265625,0.04028820991516113,-0.20187926292419434
1773200114468890600,5.895890625,0.29086971282958984,0.06304740905761719,-0.33841753005981445
1773200114484912000,5.911912109375,0.6580028533935547,-0.0409393310546875,-0.15170884132385254
1773200114500905000,5.927905029296875,0.713282585144043,-0.09675049781799316,0.17647051811218262
1773200114516896300,5.943896240234375,0.5956525802612305,-0.14240527153015137,0.3679206371307373
1773200114532918800,5.959918701171875,0.4575166702270508,-0.19402027130126953,0.4462466239929199
1773200114548909000,5.975908935546875,0.2701892852783203,-0.1970844268798828,0.4275088310241699
1773200114564899800,5.99189990234375,0.10486698150634766,-0.27905845642089844,0.5032622814178467
1773200114580890600,6.007890625,0.2364339828491211,-0.4034397602081299,0.3283817768096924
1773200114596913400,6.023913330078125,0.45977210998535156,-0.47216248512268066,0.2311716079711914
1773200114612904700,6.03990478515625,0.42957305908203125,-0.5967309474945068,0.33837103843688965
1773200114628896500,6.055896484375,0.27687644958496094,-0.7314612865447998,0.5218746662139893
1773200114644915200,6.071915283203125,0.17437362670898438,-0.7717070579528809,0.5436875820159912
1773200114660908300,6.087908203125,0.27742576599121094,-0.7629868984222412,0.48259735107421875
1773200114676900000,6.103900146484375,0.6225824356079102,-0.7171931266784668,0.12185239791870117
1773200114692922000,6.119922119140625,0.7949895858764648,-0.6412866115570068,0.18116259574890137
1773200114708913000,6.135912841796875,0.47425079345703125,-0.5474424362182617,0.13885259628295898
1773200114724903700,6.151903564453125,-0.04599285125732422,-0.40378546714782715,0.1375288963317871
1773200114740895700,6.167895751953125,-0.5474319458007812,-0.2876155376434326,0.00017333030700683594
1773200114756917500,6.18391748046875,-0.868072509765625,-0.23432278633117676,-0.12731504440307617
1773200114772906200,6.19990625,-0.802403450012207,-0.24810504913330078,-0.21923065185546875
1773200114788897300,6.215897216796875,-0.4729900360107422,-0.3144667148590088,-0.11844134330749512
1773200114804919000,6.2319189453125,-0.4541950225830078,-0.3861124515533447,-0.0682072639465332
1773200114820913200,6.2479130859375,-0.41017723083496094,-0.3386967182159424,-0.18928790092468262
1773200114836904400,6.263904541015625,-0.32916927337646484,-0.3404276371002197,-0.30143189430236816
1773200114852894700,6.279894775390625,-0.40016841888427734,-0.2763361930847168,-0.24674153327941895
1773200114868916700,6.295916748046875,-0.5882110595703125,-0.26459383964538574,-0.14310288429260254
1773200114884907300,6.3119072265625,-0.6891746520996094,-0.21549224853515625,-0.0928807258605957
1773200114900898000,6.32789794921875,-0.5098342895507812,-0.05611395835876465,-0.1714162826538086
1773200114916920800,6.3439208984375,-0.41356658935546875,-0.03896522521972656,-0.22499489784240723
1773200114932911600,6.35991162109375,-0.29964351654052734,0.04705047607421875,-0.1542661190032959
1773200114948902400,6.37590234375,-0.3037128448486328,0.09653663635253906,-0.06431865692138672
1773200114964894700,6.391894775390625,-0.352386474609375,0.09730029106140137,0.13560771942138672
1773200114980917200,6.407917236328125,-0.4132375717163086,0.032813072204589844,0.47342896461486816
1773200114996907800,6.42390771484375,-0.4889335632324219,-0.10601329803466797,0.8621826171875
1773200115012898300,6.439898193359375,-0.4721040725708008,-0.2521088123321533,1.1781095266342163
1773200115028920800,6.4559208984375,-0.26928043365478516,-0.35181093215942383,1.2803797721862793
1773200115044910600,6.47191064453125,0.06184577941894531,-0.3932960033416748,1.1868948936462402
1773200115060902400,6.48790234375,0.3477020263671875,-0.37317919731140137,1.2328275442123413
1773200115076893400,6.5038935546875,0.4262971878051758,-0.3988792896270752,1.2067066431045532
1773200115092914700,6.519914794921875,0.5915021896362305,-0.37100982666015625,1.256108045578003
1773200115108907000,6.535906982421875,0.8236045837402344,-0.28694629669189453,0.9602859020233154
1773200115124899300,6.5518994140625,1.1404447555541992,-0.10902881622314453,0.5960111618041992
1773200115140919600,6.56791943359375,1.0712127685546875,0.14545178413391113,0.14397644996643066
1773200115156910600,6.58391064453125,0.6783227920532227,0.4266500473022461,-0.24595022201538086
1773200115172902700,6.599902587890625,0.15116119384765625,0.6493027210235596,-0.3146085739135742
1773200115188891100,6.61589111328125,-0.4139070510864258,0.7622177600860596,-0.2309253215789795
1773200115204913700,6.63191357421875,-0.9229974746704102,0.8395054340362549,-0.07172536849975586
1773200115220907500,6.647907470703125,-1.3339872360229492,0.8179183006286621,0.05288100242614746
1773200115236897500,6.6638974609375,-1.4087615013122559,0.6488549709320068,0.2574021816253662
1773200115252916700,6.679916748046875,-1.1942319869995117,0.4317512512207031,0.47899389266967773
1773200115268910800,6.695910888671875,-0.8161211013793945,0.27257871627807617,0.6475282907485962
1773200115284899000,6.711899169921875,-0.35639095306396484,0.1599416732788086,0.7897043228149414
1773200115300892200,6.72789208984375,0.1183156967163086,0.17177414894104004,0.7562415599822998
1773200115316914400,6.74391455078125,0.48505210876464844,0.22152090072631836,0.7200372219085693
1773200115332905700,6.75990576171875,0.7400827407836914,0.24135589599609375,0.8114916086196899
1773200115348895200,6.775895263671875,0.9155902862548828,0.265960693359375,0.8071132898330688
1773200115364917500,6.79191748046875,1.0321836471557617,0.37412261962890625,0.7830983400344849
1773200115380907800,6.80790771484375,0.8234024047851562,0.5025477409362793,0.7031346559524536
1773200115396900900,6.82390087890625,0.3897256851196289,0.6616203784942627,0.6089832782745361
1773200115412890600,6.839890625,-0.11829853057861328,0.7255129814147949,0.573556661605835
1773200115428913400,6.855913330078125,-0.5245265960693359,0.729820728302002,0.5078483819961548
1773200115444903200,6.871903076171875,-0.13796138763427734,0.6397614479064941,0.410768985748291
1773200115460897300,6.887897216796875,-0.15333080291748047,0.6279385089874268,0.28600049018859863
1773200115476918800,6.903918701171875,-0.2701578140258789,0.7072997093200684,0.1290271282196045
1773200115492908800,6.91990869140625,-0.16758251190185547,0.7308375835418701,0.07412362098693848
1773200115508899300,6.9358994140625,0.028490066528320312,0.7587192058563232,-0.21448397636413574
1773200115524920000,6.951920166015625,0.2941398620605469,0.7271096706390381,-0.2762026786804199
1773200115540913700,6.96791357421875,0.6863241195678711,0.6104691028594971,-0.19563889503479004
1773200115556904700,6.98390478515625,0.7525615692138672,0.5666184425354004,-0.17097949981689453
1773200115572896000,6.99989599609375,0.8697347640991211,0.5742158889770508,-0.4229896068572998
1773200115588915700,7.015915771484375,0.9618148803710938,0.48205113410949707,-0.5885758399963379
1773200115604909600,7.03190966796875,0.9303445816040039,0.18482398986816406,-0.6938798427581787
1773200115620899300,7.0478994140625,1.1609630584716797,-0.30489158630371094,-0.838508129119873
1773200115636891600,7.0638916015625,1.615391731262207,-0.701209545135498,-1.2423079013824463
1773200115652913000,7.079912841796875,1.7845497131347656,-0.8608872890472412,-2.138483762741089
1773200115668902100,7.095902099609375,1.488454818725586,-0.7992081642150879,-2.667891502380371
1773200115684895000,7.11189501953125,0.7610549926757812,-1.1030805110931396,-2.5739054679870605
1773200115700918300,7.127918212890625,0.37805843353271484,-1.4346632957458496,-1.7477693557739258
1773200115716908000,7.143907958984375,-0.26462554931640625,-1.8082937002182007,-0.7050437927246094
1773200115732896800,7.159896728515625,-1.044266700744629,-1.9816861152648926,-0.13243556022644043
1773200115748889900,7.175889892578125,-1.9608798027038574,-2.0455408096313477,0.21869540214538574
1773200115764912000,7.191912109375,-2.511627197265625,-2.015855312347412,0.2530229091644287
1773200115780903200,7.207903076171875,-2.830827236175537,-2.1006734371185303,0.1487879753112793
1773200115796894700,7.223894775390625,-2.826502799987793,-2.0770890712738037,0.12607789039611816
1773200115812916700,7.239916748046875,-2.6363654136657715,-1.9644566774368286,-0.17466139793395996
1773200115828906800,7.25590673828125,-2.0419387817382812,-1.4147685766220093,-0.7613420486450195
1773200115844898000,7.27189794921875,-1.0095429420471191,-0.8170537948608398,-1.615036964416504
1773200115860889300,7.287889404296875,0.16421031951904297,-0.2185661792755127,-2.579892158508301
1773200115876913000,7.303912841796875,1.223602294921875,0.3919341564178467,-3.372572898864746
1773200115892904000,7.319904052734375,1.7153635025024414,0.9887609481811523,-3.628974676132202
1773200115908892400,7.335892333984375,1.572524070739746,1.0653903484344482,-3.4384498596191406
1773200115924914000,7.351913818359375,1.004267692565918,0.9088666439056396,-2.4926140308380127
1773200115940906000,7.367906005859375,0.01963329315185547,0.6372745037078857,-1.523451805114746
1773200115956898300,7.383898193359375,-0.6543149948120117,0.40918612480163574,-1.0776667594909668
1773200115972920000,7.399920166015625,-0.9779849052429199,0.13661837577819824,-0.7276418209075928
1773200115988912000,7.415912109375,-0.9599776268005371,-0.2889399528503418,-0.3993234634399414
1773200116004903700,7.431903564453125,-0.7888174057006836,-0.6883938312530518,-0.0433347225189209
1773200116020894200,7.447894287109375,-0.6607856750488281,-1.0054171085357666,0.16504669189453125
1773200116036914700,7.463914794921875,-0.5751829147338867,-1.171965479850769,0.2645547389984131
1773200116052906200,7.47990625,-0.7060394287109375,-1.183968186378479,0.08878803253173828
1773200116068896800,7.495896728515625,-0.8814182281494141,-1.2683751583099365,-0.07066965103149414
1773200116084918800,7.511918701171875,-0.8307962417602539,-1.2857723236083984,-0.5144290924072266
1773200116100910300,7.527910400390625,-0.7545099258422852,-1.1130245923995972,-1.1022100448608398
1773200116116902100,7.543902099609375,-0.9652566909790039,-0.8320313692092896,-1.4436814785003662
1773200116132893400,7.5598935546875,-1.4056391716003418,-0.4411013126373291,-1.5617053508758545
1773200116148914200,7.5759140625,-1.5922622680664062,-0.005990743637084961,-1.6076974868774414
1773200116164904400,7.591904541015625,-1.0223917961120605,0.39980626106262207,-1.6543018817901611
1773200116180896800,7.607896728515625,-0.3836984634399414,0.6706893444061279,-1.6770648956298828
1773200116196918000,7.62391796875,-0.016904830932617188,0.8047254085540771,-1.6496384143829346
1773200116212910300,7.639910400390625,0.05640602111816406,0.7908327579498291,-1.2896997928619385
1773200116228902400,7.65590234375,-0.022480010986328125,0.7877042293548584,-1.10369873046875
1773200116244891600,7.6718916015625,-0.2082996368408203,0.6339786052703857,-0.7280800342559814
1773200116260913200,7.6879130859375,-0.13037872314453125,0.4748842716217041,-0.5222916603088379
1773200116276547000,7.703547119140625,0.1133270263671875,0.31051063537597656,-0.507021427154541
1773200116292897800,7.719897705078125,0.34270668029785156,0.13047003746032715,-0.31766653060913086
1773200116308919600,7.73591943359375,0.2157754898071289,0.004442453384399414,-0.10747098922729492
1773200116324907500,7.751907470703125,-0.1849193572998047,0.0658729076385498,-0.07011938095092773
1773200116340902400,7.76790234375,-0.4046440124511719,0.14700603485107422,-0.3728063106536865
1773200116356891100,7.78389111328125,-0.47619152069091797,0.12146878242492676,-0.3786282539367676
1773200116372914000,7.799913818359375,-0.18140125274658203,0.02816462516784668,-0.3759129047393799
1773200116388331300,7.815331298828125,-0.02630138397216797,0.2386317253112793,-0.6491677761077881
1773200116404895700,7.831895751953125,-0.26650047302246094,0.4664285182952881,-0.8854465484619141
1773200116420917800,7.847917724609375,-0.3927183151245117,0.6433517932891846,-0.8681752681732178
1773200116436908500,7.863908447265625,-0.22858810424804688,0.6781229972839355,-0.8342485427856445
1773200116452899600,7.879899658203125,-0.2577371597290039,0.5263020992279053,-1.12528657913208
1773200116468923000,7.8959228515625,0.28598785400390625,0.3948554992675781,-1.3178024291992188
1773200116484912600,7.91191259765625,1.111170768737793,-0.017032384872436523,-1.0702400207519531
1773200116500905200,7.9279052734375,2.0958003997802734,-0.43967247009277344,-0.6206769943237305
1773200116516896000,7.94389599609375,2.3712120056152344,-0.6531400680541992,-0.1910381317138672
1773200116532916500,7.95991650390625,2.140364646911621,-0.8196618556976318,0.2628200054168701
1773200116548907500,7.975907470703125,1.763014793395996,-0.723823070526123,0.4003791809082031
1773200116564898600,7.991898681640625,1.1046924591064453,-0.6207730770111084,0.36327242851257324
1773200116580890400,8.007890380859376,0.3159465789794922,-0.6004271507263184,0.3122079372406006
1773200116596913200,8.0239130859375,-0.32680606842041016,-0.5591702461242676,0.31693506240844727
1773200116612903400,8.0399033203125,-0.9371504783630371,-0.6574499607086182,0.30648231506347656
1773200116628895700,8.055895751953125,-1.1789040565490723,-0.8512272834777832,0.40190982818603516
1773200116644916200,8.071916259765626,-1.3200430870056152,-1.060772180557251,0.42496538162231445
1773200116660907800,8.08790771484375,-1.4757800102233887,-1.2611180543899536,0.2355034351348877
1773200116676899300,8.1038994140625,-1.0605692863464355,-1.4158906936645508,0.06734108924865723
1773200116692920800,8.1199208984375,-0.34139156341552734,-1.5683879852294922,0.12108254432678223
1773200116708911000,8.1359111328125,0.932917594909668,-1.7528364658355713,0.21875309944152832
1773200116724903700,8.151903564453125,1.7569475173950195,-1.8793935775756836,0.14534330368041992
1773200116740892400,8.167892333984375,1.543975830078125,-1.7106599807739258,0.41774535179138184
1773200116756917500,8.18391748046875,-0.2008380889892578,-2.060910701751709,1.0688307285308838
1773200116772908000,8.199907958984374,0.13491535186767578,-0.8843348026275635,0.9657844305038452
1773200116788898000,8.21589794921875,0.8007936477661133,-0.8617420196533203,1.055738925933838
1773200116804918500,8.23191845703125,0.7327547073364258,-1.171907901763916,1.0712456703186035
1773200116820909800,8.247909912109375,0.6421298980712891,-0.6623575687408447,-0.016541719436645508
1773200116836903000,8.26390283203125,-0.14334678649902344,-0.7449812889099121,-0.12609362602233887
1773200116852892200,8.27989208984375,-0.2743644714355469,-0.6445803642272949,-0.39386749267578125
1773200116868915000,8.2959150390625,-0.5604515075683594,-0.7277977466583252,-0.04451870918273926
1773200116884905700,8.31190576171875,-0.5647168159484863,-0.8745996952056885,0.3836863040924072
1773200116900897500,8.3278974609375,-0.36789703369140625,-0.8799240589141846,0.708270788192749
1773200116916920600,8.343920654296875,0.010713577270507812,-0.8291327953338623,0.28748083114624023
1773200116932912000,8.359912109375,0.6757946014404297,-0.715764045715332,-0.42623305320739746
1773200116948902000,8.37590185546875,0.8365535736083984,-0.669921875,-0.49312710762023926
1773200116964891600,8.3918916015625,0.571192741394043,-0.6089363098144531,-0.7646863460540771
1773200116980915700,8.407915771484374,0.4969367980957031,-0.452564001083374,-0.9128625392913818
1773200116996906800,8.42390673828125,0.24184417724609375,-0.31978678703308105,-0.7560279369354248
1773200117012896800,8.439896728515626,-0.04664039611816406,-0.20220637321472168,-0.5226607322692871
1773200117028920300,8.45592041015625,-0.3014059066772461,-0.1299879550933838,-0.3327820301055908
1773200117044909000,8.471908935546875,-0.605133056640625,-0.08939743041992188,-0.2252647876739502
1773200117060902100,8.487902099609375,-0.8948407173156738,0.045511722564697266,-0.5049984455108643
1773200117076892400,8.503892333984375,-0.9171462059020996,0.1394791603088379,-0.5600731372833252
1773200117092915700,8.519915771484374,-0.777864933013916,-0.1323399543762207,-0.2773478031158447
1773200117108904700,8.53590478515625,-0.6845345497131348,-0.5757522583007812,0.31928586959838867
1773200117124897300,8.551897216796876,-0.7939128875732422,-0.7590029239654541,0.7360715866088867
1773200117140919800,8.567919921875,-0.3528738021850586,-0.9924414157867432,0.7641822099685669
1773200117156910600,8.58391064453125,0.18461990356445312,-1.1207568645477295,0.7429962158203125
1773200117172900000,8.599900146484375,0.4741945266723633,-1.110804557800293,0.9078894853591919
1773200117188893700,8.615893798828125,0.5881385803222656,-0.9823157787322998,0.9745371341705322
1773200117204913400,8.631913330078126,0.7392377853393555,-0.8906669616699219,1.0248574018478394
1773200117220905700,8.64790576171875,0.6409902572631836,-0.6804101467132568,1.2061707973480225
1773200117236896000,8.66389599609375,0.04894065856933594,-0.444141149520874,1.4396934509277344
1773200117252918000,8.67991796875,-0.3636646270751953,-0.2984027862548828,1.711861491203308
1773200117268910600,8.69591064453125,-0.1133890151977539,-0.31591200828552246,1.7099887132644653
1773200117284900000,8.711900146484375,0.2531251907348633,-0.2511405944824219,1.6173937320709229
1773200117300891100,8.72789111328125,0.4025726318359375,-0.13579964637756348,1.4546929597854614
1773200117316913000,8.743912841796876,0.3866386413574219,-0.029993534088134766,1.3845114707946777
1773200117332902700,8.759902587890625,0.17792510986328125,0.05938267707824707,1.352597951889038
1773200117348895500,8.7758955078125,-0.22040843963623047,0.11014485359191895,1.4420146942138672
1773200117364918500,8.79191845703125,-0.5655698776245117,0.3431692123413086,1.4781664609909058
1773200117380908000,8.807907958984375,-0.4613170623779297,0.45485615730285645,1.4720613956451416
1773200117396898000,8.82389794921875,-0.36632442474365234,0.3773000240325928,1.3603384494781494
1773200117412891600,8.8398916015625,-0.09721946716308594,0.4821963310241699,0.6276637315750122
1773200117428911900,8.855911865234376,0.41208839416503906,0.5667028427124023,-0.013848185539245605
1773200117444903400,8.8719033203125,0.774627685546875,0.6780779361724854,0.47796154022216797
1773200117460894200,8.887894287109376,0.7505655288696289,0.7848598957061768,0.7547609806060791
1773200117476915000,8.9039150390625,0.8098011016845703,0.8715877532958984,0.773453414440155
1773200117492906800,8.91990673828125,1.256077766418457,0.8352317810058594,0.7958148717880249
1773200117508897300,8.935897216796874,2.020003318786621,0.6427419185638428,0.6340749859809875
1773200117524891100,8.95189111328125,2.2408809661865234,0.47388172149658203,0.48968714475631714
1773200117540911400,8.967911376953126,1.666818618774414,0.40183520317077637,0.3191632032394409
1773200117556903200,8.983903076171876,0.5597543716430664,0.5709211826324463,0.4288596510887146
1773200117572894200,8.999894287109376,0.02180004119873047,0.5568013191223145,0.7409142255783081
1773200117588915700,9.015915771484375,-0.30351924896240234,0.6079354286193848,0.694563090801239
1773200117604906200,9.03190625,-0.6173906326293945,0.6025948524475098,0.9524319767951965
1773200117620898800,9.04789892578125,-0.8165092468261719,0.525933027267456,1.0601211786270142
1773200117636920800,9.0639208984375,-0.2153167724609375,0.43512463569641113,0.7080443501472473
1773200117652912600,9.07991259765625,0.8477296829223633,0.29444050788879395,0.31237542629241943
1773200117668902700,9.095902587890626,1.629511833190918,0.12156891822814941,-0.06949734687805176
1773200117684894000,9.11189404296875,1.5486173629760742,-0.1724553108215332,-0.29578518867492676
1773200117700915700,9.127915771484375,1.1708545684814453,-0.5903723239898682,-0.24907004833221436
1773200117716906800,9.14390673828125,0.3090200424194336,-1.0829484462738037,-0.1996976137161255
1773200117732897300,9.159897216796875,-0.5557575225830078,-1.295950174331665,0.12544381618499756
1773200117748920600,9.175920654296876,-1.418722152709961,-1.2869722843170166,0.6118849515914917
1773200117764911600,9.19191162109375,-1.805598258972168,-1.3011302947998047,0.5375716090202332
1773200117780903200,9.207903076171876,-1.5282154083251953,-1.4292681217193604,0.14882218837738037
1773200117796893700,9.223893798828126,-1.2360749244689941,-1.5512011051177979,-0.4574085474014282
1773200117812914200,9.2399140625,-1.0677623748779297,-1.7149264812469482,-0.8499065637588501
1773200117828905000,9.255905029296875,-0.30397605895996094,-1.3158657550811768,-0.7307436466217041
1773200117844899000,9.271899169921875,0.3643016815185547,-1.0575804710388184,-1.1886754035949707
1773200117860918500,9.28791845703125,0.48863887786865234,-0.8845410346984863,-1.5796278715133667
1773200117876911000,9.3039111328125,0.10058307647705078,-0.6253268718719482,-1.5298144817352295
1773200117892903000,9.31990283203125,-0.1227865219116211,-0.46947240829467773,-1.2320218086242676
1773200117908892400,9.335892333984376,-0.4286031723022461,-0.24651312828063965,-0.9704999923706055
1773200117924915700,9.351915771484375,-0.674159049987793,0.144700288772583,-1.1068809032440186
1773200117940906500,9.367906494140625,-0.9973835945129395,0.46446871757507324,-1.347799301147461
1773200117956897300,9.383897216796875,-1.3519306182861328,0.6598806381225586,-1.2299811840057373
1773200117972919300,9.399919189453126,-1.1603202819824219,0.7603259086608887,-1.1230676174163818
1773200117988909800,9.415909912109376,-0.988685131072998,0.6936085224151611,-1.180178165435791
1773200118004902100,9.431902099609376,-0.9593214988708496,0.5908675193786621,-1.0725610256195068
1773200118020892200,9.44789208984375,-0.6376953125,0.5311436653137207,-0.6405434608459473
1773200118036914000,9.463913818359375,0.027861595153808594,0.20986723899841309,-0.35640668869018555
1773200118052904700,9.47990478515625,-0.05701446533203125,-0.9932403564453125,0.5725793838500977
1773200118068897800,9.495897705078125,-0.19897842407226562,0.12078642845153809,-0.21246099472045898
1773200118084917000,9.5119169921875,-0.8763508796691895,0.4401407241821289,-0.1760571002960205
1773200118100910000,9.52791015625,-1.0235166549682617,-0.38889598846435547,1.0371568202972412
1773200118116900000,9.543900146484376,-1.0605792999267578,-0.47262048721313477,1.342676043510437
1773200118132892400,9.559892333984376,-1.3218107223510742,-0.46119165420532227,0.8254823684692383
1773200118148911900,9.575911865234374,-1.760138988494873,-0.48190927505493164,0.38541674613952637
1773200118164904700,9.59190478515625,-2.0731873512268066,-0.40117383003234863,0.15584802627563477
1773200118180895700,9.607895751953125,-2.334751605987549,-0.24853301048278809,0.1354508399963379
1773200118196918500,9.62391845703125,-2.720280170440674,-0.16203546524047852,0.0779714584350586
1773200118212908000,9.639907958984375,-2.4919252395629883,-0.1382458209991455,0.21479368209838867
1773200118228898300,9.655898193359375,-3.26596736907959,-0.1871354579925537,-0.3412199020385742
1773200118244892000,9.671891845703126,-3.9262938499450684,-0.22160100936889648,-1.3401060104370117
1773200118260912400,9.687912353515625,-2.738846778869629,0.822432279586792,-2.5847063064575195
1773200118276905500,9.703905517578125,-1.346372127532959,1.28183913230896,-3.103297710418701
1773200118292897300,9.719897216796875,-0.030663490295410156,1.2763826847076416,-2.9853434562683105
1773200118308917000,9.7359169921875,0.7461891174316406,1.4143664836883545,-2.6389822959899902
1773200118324909000,9.751908935546876,-0.5180187225341797,1.3169622421264648,-2.737257957458496
1773200118340900600,9.767900634765626,-2.580592155456543,1.2894654273986816,-1.75624418258667
1773200118356891100,9.78389111328125,-4.074932098388672,1.4429967403411865,-0.026261329650878906
1773200118372910800,9.799910888671874,-4.955962181091309,0.9619909524917603,0.6921429634094238
1773200118388903000,9.81590283203125,-4.728468894958496,0.5132298469543457,-0.37903547286987305
1773200118404895700,9.831895751953125,-3.7642645835876465,0.37801337242126465,-1.4864249229431152
1773200118420917800,9.847917724609376,-3.3842501640319824,0.1166297197341919,-1.1346135139465332
1773200118436909000,9.863908935546876,-3.6184215545654297,-0.34219372272491455,-0.03124523162841797
1773200118452898800,9.87989892578125,-4.571773529052734,-0.8008326888084412,0.40767860412597656
1773200118468890400,9.895890380859376,-4.001567840576172,-1.3544743061065674,1.8184623718261719
1773200118484912000,9.911912109375,-3.6093859672546387,-1.836792230606079,1.8658580780029297
1773200118500904000,9.927904052734375,-3.1271886825561523,-2.204646587371826,2.2381505966186523
1773200118516894500,9.94389453125,-3.531306505203247,-2.5377016067504883,2.852651596069336
1773200118532917200,9.959917236328126,-4.909803867340088,-3.2086687088012695,2.428084373474121
1773200118548908500,9.975908447265626,-5.420733451843262,-4.102102756500244,0.8414340019226074
1773200118564899000,9.991899169921876,-4.053696155548096,-4.999935150146484,-0.4269886016845703
1773200118580889600,10.0078896484375,-1.0499227046966553,-5.327662467956543,-0.12381744384765625
1773200118596913000,10.023912841796875,0.98726487159729,-5.1355109214782715,-0.11565589904785156
1773200118612900900,10.03990087890625,0.6577835083007812,-5.243659496307373,-1.432713508605957
1773200118628893200,10.05589306640625,-1.0074357986450195,-5.165670871734619,-3.6178483963012695
1773200118644917200,10.071917236328124,-2.0987489223480225,-5.12660551071167,-4.978915214538574
1773200118660907500,10.087907470703126,-1.902925729751587,-4.733870983123779,-4.656709671020508
1773200118676899600,10.103899658203124,-0.54201740026474,-4.1610846519470215,-3.7831192016601562
1773200118692919600,10.11991943359375,0.803550124168396,-3.558774471282959,-3.865955352783203
1773200118708910000,10.13591015625,1.397047519683838,-3.124041795730591,-3.4063720703125
1773200118724900400,10.151900390625,1.8436321020126343,-2.6855714321136475,-2.913632392883301
1773200118740894200,10.167894287109375,2.2312934398651123,-2.2240402698516846,-2.1266326904296875
1773200118756915500,10.18391552734375,2.3580257892608643,-2.212136745452881,-1.5400772094726562
1773200118772905500,10.199905517578125,2.455925464630127,-2.1138153076171875,-2.433577537536621
1773200118788896800,10.215896728515625,3.0569961071014404,-1.861377477645874,-3.301237106323242
1773200118804919600,10.23191943359375,4.057867527008057,-1.1183195114135742,-3.036510467529297
1773200118820910000,10.24791015625,4.061858177185059,0.7070105075836182,-3.343069076538086
1773200118836902700,10.263902587890625,2.7578659057617188,1.710059642791748,-5.161029815673828
1773200118852893400,10.2798935546875,1.9370801448822021,1.4576663970947266,-8.04427719116211
1773200118868914000,10.295913818359375,1.9672942161560059,1.3031120300292969,-9.277484893798828
1773200118884905500,10.311905517578126,3.045289993286133,1.6480491161346436,-7.291164398193359
1773200118900897000,10.32789697265625,4.0958075523376465,1.6992335319519043,-4.9183502197265625
1773200118916919300,10.343919189453125,4.148620128631592,1.8724467754364014,-3.5305471420288086
1773200118932909600,10.35990966796875,3.8435254096984863,1.9239375591278076,-3.039766311645508
1773200118948900000,10.375900146484375,3.7312912940979004,1.9404609203338623,-3.1912479400634766
1773200118964892000,10.391891845703125,3.334230661392212,2.197944402694702,-3.624602794647217
1773200118980915200,10.407915283203126,2.953125,2.187913179397583,-3.474350929260254
1773200118996905700,10.42390576171875,2.696841239929199,1.7572922706604004,-2.2490339279174805
1773200119012895700,10.439895751953125,2.6267151832580566,1.6134071350097656,-1.1960701942443848
1773200119028919600,10.45591943359375,2.349332332611084,1.3244104385375977,-0.5767264366149902
1773200119044910600,10.47191064453125,1.936267614364624,1.0855135917663574,-0.16210699081420898
1773200119060900000,10.487900146484375,1.5471742153167725,0.7532863616943359,0.01405477523803711
1773200119076892400,10.503892333984375,1.051843523979187,0.4363131523132324,-0.12762928009033203
1773200119092913200,10.5199130859375,0.5804189443588257,0.251706600189209,-0.26885509490966797
1773200119108906200,10.53590625,0.2769376039505005,0.1146397590637207,-0.4280891418457031
1773200119124895500,10.5518955078125,0.25373005867004395,0.04074573516845703,-0.38062191009521484
1773200119140916700,10.567916748046875,0.2202487587928772,0.04846620559692383,-0.26486968994140625
1773200119156907800,10.58390771484375,0.0504683256149292,0.1423487663269043,-0.2872352600097656
1773200119172900900,10.59990087890625,-0.4563003182411194,0.2289590835571289,-0.26850318908691406
1773200119188889900,10.615889892578124,-1.0713460445404053,0.12721538543701172,-0.4508628845214844
1773200119204913200,10.6319130859375,-1.5867003202438354,0.06522083282470703,-0.3043661117553711
1773200119220904000,10.647904052734376,-1.9869482517242432,-0.12303447723388672,0.2613525390625
1773200119236896300,10.663896240234376,-2.224937915802002,-0.37328624725341797,0.8855700492858887
1773200119252916000,10.679916015625,-2.479111909866333,-0.5132989883422852,1.3497910499572754
1773200119268909600,10.69590966796875,-2.2908108234405518,-0.6280093193054199,1.3623499870300293
1773200119284899300,10.7118994140625,-2.145340919494629,-0.5074620246887207,1.0962262153625488
1773200119300889600,10.7278896484375,-2.162480592727661,-0.5818815231323242,0.7825942039489746
1773200119316913000,10.743912841796876,-1.8349891901016235,-0.96881103515625,0.26604175567626953
1773200119332904000,10.759904052734376,-1.6551902294158936,-1.3061838150024414,-0.1083536148071289
1773200119348895200,10.775895263671876,-1.5087096691131592,-1.7241296768188477,-0.6606597900390625
1773200119364915700,10.791915771484375,-1.1761415004730225,-1.8991546630859375,-1.2339887619018555
1773200119380908300,10.807908203125,-0.780540943145752,-1.8615484237670898,-1.7082395553588867
1773200119396899000,10.823899169921875,-0.13296794891357422,-1.4749698638916016,-1.915022850036621
1773200119412942600,10.839942626953125,0.7075845003128052,-0.6362605094909668,-1.8816757202148438
1773200119428935400,10.855935302734375,1.2244399785995483,0.34630680084228516,-1.9372854232788086
1773200119444928000,10.871927978515625,1.2740898132324219,1.2102794647216797,-2.0370607376098633
1773200119460919300,10.887919189453125,1.351916790008545,1.682429313659668,-1.374155044555664
1773200119476940300,10.903940185546874,1.7227919101715088,1.6615886688232422,-0.030571937561035156
1773200119492930300,10.919930419921876,1.7967517375946045,1.4025847911834717,1.1610307693481445
1773200119508922600,10.935922607421874,1.4159907102584839,0.8948154449462891,1.8026642799377441
1773200119524944100,10.951944091796875,1.0389550924301147,0.7007718086242676,1.8420324325561523
1773200119540936400,10.9679365234375,0.7183088660240173,0.31890201568603516,0.8401322364807129
1773200119556926200,10.98392626953125,0.3213236331939697,-0.22726678848266602,0.08157539367675781
1773200119572916500,10.99991650390625,-0.005825042724609375,-0.9487714767456055,-0.0005674362182617188
1773200119588938000,11.01593798828125,-0.07942748069763184,-1.546433448791504,0.22062206268310547
1773200119604929800,11.0319296875,-0.17077302932739258,-1.8490099906921387,0.6526226997375488
1773200119620920600,11.047920654296876,-0.1330643892288208,-1.7043876647949219,1.1828899383544922
1773200119636944000,11.06394384765625,0.6073872447013855,-1.2427473068237305,1.2939119338989258
1773200119652934700,11.0799345703125,1.2966026067733765,-0.6155719757080078,1.094780445098877
1773200119668926200,11.09592626953125,1.3851381540298462,-0.2927994728088379,0.991757869720459
1773200119684917500,11.11191748046875,1.147808313369751,-0.030487060546875,0.8875565528869629
1773200119700940500,11.1279404296875,0.4122582674026489,0.0591273307800293,0.9453210830688477
1773200119716930800,11.143930908203124,-0.9041740894317627,0.04955101013183594,1.2292003631591797
1773200119732921300,11.15992138671875,-2.045048475265503,0.004622936248779297,1.4701685905456543
1773200119748942000,11.175942138671875,-2.6425015926361084,0.047666072845458984,1.564986228942871
1773200119764935000,11.191934814453125,-2.9537205696105957,0.12666082382202148,1.667290210723877
1773200119780925700,11.20792578125,-2.8645431995391846,0.3043088912963867,1.4812307357788086
1773200119796917500,11.22391748046875,-2.2869961261749268,0.3456583023071289,1.239412784576416
1773200119812939500,11.239939453125,-1.6757397651672363,0.3195834159851074,1.1702485084533691
1773200119828931300,11.255931396484375,-1.0557899475097656,0.3790416717529297,1.2206292152404785
1773200119844920800,11.2719208984375,-0.4756598472595215,0.34638452529907227,1.368215560913086
1773200119860942000,11.287942138671875,-0.07208025455474854,0.287996768951416,1.3108000755310059
1773200119876934100,11.30393408203125,0.3318753242492676,0.1930527687072754,1.3206448554992676
1773200119892926500,11.319926513671875,0.5948172211647034,0.12138700485229492,1.026937484741211
1773200119908914200,11.3359140625,0.4714243412017822,-0.09244537353515625,0.6022701263427734
1773200119924938200,11.351938232421874,0.2875862717628479,-0.2271890640258789,0.06636810302734375
1773200119940929800,11.3679296875,0.2515377402305603,-0.3639030456542969,-0.44299888610839844
1773200119956922400,11.38392236328125,0.301283061504364,-0.3404726982116699,-1.0410051345825195
1773200119972942800,11.39994287109375,0.16561657190322876,-0.16505956649780273,-1.5725812911987305
1773200119988935200,11.41593505859375,-0.4246402978897095,0.10998725891113281,-2.036397933959961
1773200120004925200,11.43192529296875,-1.2032058238983154,0.3897852897644043,-2.1127023696899414
1773200120020915700,11.447915771484375,-1.9339098930358887,0.1200871467590332,-2.1135358810424805
1773200120036939500,11.463939453125,-2.500998020172119,-0.6331491470336914,-2.171004295349121
1773200120052928800,11.4799287109375,-2.7611896991729736,-0.8992533683776855,-1.9428319931030273
1773200120068919600,11.49591943359375,-2.4644997119903564,-1.073127269744873,-1.8701601028442383
1773200120084942000,11.511942138671875,-1.9960606098175049,-1.0330252647399902,-2.3466873168945312
1773200120100931800,11.527931884765625,-1.4352500438690186,-0.7619466781616211,-2.9478511810302734
1773200120116925700,11.54392578125,-0.8388471007347107,-0.13010168075561523,-3.171567916870117
1773200120132914000,11.559913818359375,-0.38236647844314575,0.6894516944885254,-2.7767553329467773
1773200120148935200,11.57593505859375,0.12892228364944458,0.9956498146057129,-2.0104026794433594
1773200120164929300,11.59192919921875,0.561750054359436,0.9145917892456055,-0.9840106964111328
1773200120180920800,11.6079208984375,0.8861292004585266,0.7248697280883789,-0.07289886474609375
1773200120196942600,11.623942626953125,0.8501752614974976,0.473538875579834,0.6677083969116211
1773200120212932000,11.63993212890625,0.6623131036758423,0.3032360076904297,1.3696517944335938
1773200120228923600,11.655923583984375,0.5046906471252441,0.08823442459106445,1.7294692993164062
1773200120244914000,11.671913818359375,0.4465823471546173,-0.12212562561035156,1.9476633071899414
1773200120260936400,11.6879365234375,0.659235954284668,-0.5680923461914062,2.0808568000793457
1773200120276929500,11.703929443359375,1.344004511833191,-1.12813138961792,2.2049636840820312
1773200120292919800,11.719919921875,2.11306095123291,-1.4209604263305664,2.186343193054199
1773200120308940800,11.73594091796875,2.8011679649353027,-1.6800403594970703,1.8742008209228516
1773200120324932400,11.751932373046875,3.2094271183013916,-1.7375969886779785,1.5625252723693848
1773200120340923400,11.76792333984375,3.5124056339263916,-1.6093430519104004,1.1683835983276367
1773200120356915000,11.7839150390625,3.7140140533447266,-1.3715391159057617,0.7910733222961426
1773200120372937000,11.79993701171875,3.6644086837768555,-0.8251652717590332,0.3245048522949219
1773200120388928300,11.81592822265625,3.2103590965270996,-0.14166593551635742,-0.3214111328125
1773200120404919000,11.8319189453125,2.2553930282592773,0.17803144454956055,-1.0041332244873047
1773200120420937500,11.8479375,1.0615243911743164,0.12658023834228516,-0.9304409027099609
1773200120436932400,11.863932373046875,0.1759035587310791,-0.11525297164916992,-0.15582275390625
1773200120452922400,11.87992236328125,-0.12905240058898926,-0.23697853088378906,0.9993224143981934
1773200120468916000,11.895916015625,-0.11135739088058472,-0.2373828887939453,1.7229218482971191
1773200120484936400,11.9119365234375,0.0005456209182739258,-0.19867324829101562,1.9136919975280762
1773200120500927700,11.927927734375,-0.09495383501052856,-0.18378019332885742,1.5374269485473633
1773200120516918500,11.94391845703125,-0.16148078441619873,-0.24239110946655273,1.2535347938537598
1773200120532941800,11.95994189453125,-0.0011418461799621582,-0.2870488166809082,1.256424903869629
1773200120548931800,11.975931884765625,0.22973263263702393,-0.4254631996154785,1.3647770881652832
1773200120564924000,11.991923828125,0.5452167391777039,-0.46202611923217773,1.3092875480651855
1773200120580912000,12.007912109375,0.7684797048568726,-0.2311863899230957,0.8023462295532227
1773200120596936200,12.023936279296874,0.7028715014457703,-0.05475950241088867,0.04434013366699219
1773200120612928800,12.0399287109375,0.21861863136291504,0.24780035018920898,-0.5396108627319336
1773200120628919000,12.0559189453125,-0.49760323762893677,0.4664621353149414,-0.9193258285522461
1773200120644938500,12.0719384765625,-0.9989743828773499,0.5183019638061523,-0.8855876922607422
1773200120660930800,12.087930908203125,-1.1551785469055176,0.6173610687255859,-0.9421825408935547
1773200120676924000,12.103923828125,-1.0210450887680054,0.7501320838928223,-1.2733888626098633
1773200120692943600,12.119943603515624,-1.057700514793396,0.7017097473144531,-1.9096698760986328
1773200120708935700,12.135935791015624,-1.147104263305664,0.7425022125244141,-2.436821937561035
1773200120724927200,12.15192724609375,-1.2036423683166504,0.7825770378112793,-2.9620885848999023
1773200120740917200,12.167917236328124,-1.1625336408615112,0.4155464172363281,-3.322781562805176
1773200120756939500,12.183939453125,-1.3366186618804932,-0.026447296142578125,-3.205860137939453
1773200120772930800,12.199930908203125,-1.0379573106765747,-0.19749832153320312,-3.219076156616211
1773200120788921600,12.215921630859375,-0.5078665018081665,-0.32549571990966797,-3.5639514923095703
1773200120804943400,12.231943359375,0.055806636810302734,0.00194549560546875,-3.6616334915161133
1773200120820936200,12.247936279296875,0.9260776042938232,0.9032526016235352,-3.5277209281921387
1773200120836926000,12.263926025390624,1.8792974948883057,2.085610866546631,-3.109769821166992
1773200120852918800,12.279918701171875,2.395249366760254,2.650362968444824,-2.6850509643554688
1773200120868938200,12.295938232421875,2.452472686767578,2.4266977310180664,-1.419900894165039
1773200120884929800,12.3119296875,2.2413811683654785,1.4175000190734863,0.2602510452270508
1773200120900922000,12.327922119140625,2.0721094608306885,0.4174056053161621,1.4978094100952148
1773200120916913000,12.343912841796875,1.6594898700714111,-0.5049066543579102,2.1675262451171875
1773200120932935400,12.359935302734375,1.0958237648010254,-1.3061933517456055,2.331956386566162
1773200120948925200,12.37592529296875,0.6786368489265442,-1.7594757080078125,1.988896369934082
1773200120964919000,12.3919189453125,0.39992642402648926,-2.114655017852783,1.3717355728149414
1773200120980939000,12.40793896484375,0.281028151512146,-2.1552019119262695,1.3042364120483398
1773200120996930300,12.423930419921875,0.41300857067108154,-2.052239418029785,1.8115720748901367
1773200121012919600,12.43991943359375,0.8680623769760132,-1.4836773872375488,2.3442907333374023
1773200121028942300,12.4559423828125,1.3174978494644165,-0.8478026390075684,2.202530860900879
1773200121044932600,12.4719326171875,1.1183927059173584,-0.31374168395996094,1.686863899230957
1773200121060924400,12.48792431640625,0.42207610607147217,-0.11250448226928711,1.4885902404785156
1773200121076917000,12.5039169921875,-0.1890869140625,0.09863662719726562,1.4042563438415527
1773200121092938000,12.51993798828125,-0.778221607208252,0.2553839683532715,1.1595988273620605
1773200121108928800,12.5359287109375,-1.4487076997756958,0.35231542587280273,0.8935394287109375
1773200121124920300,12.55192041015625,-1.9054630994796753,0.41581010818481445,1.0694584846496582
1773200121140943600,12.567943603515625,-1.9861929416656494,0.5011124610900879,1.453132152557373
1773200121156933600,12.58393359375,-1.6840752363204956,0.667417049407959,1.4220514297485352
1773200121172924000,12.599923828125,-1.0284653902053833,0.8149137496948242,0.9905567169189453
1773200121188917000,12.6159169921875,-0.4196329116821289,0.916834831237793,1.0340189933776855
1773200121204939500,12.631939453125,-0.048142433166503906,0.8411383628845215,1.2577333450317383
1773200121220928800,12.6479287109375,0.004489421844482422,0.867652416229248,1.318209171295166
1773200121236920800,12.6639208984375,-0.0986185073852539,0.8693094253540039,0.9206171035766602
1773200121252942600,12.679942626953125,-0.36967766284942627,0.8278169631958008,0.556215763092041
1773200121268934700,12.6959345703125,-0.5735708475112915,0.6793498992919922,0.11700725555419922
1773200121284924400,12.71192431640625,-0.7584136128425598,0.3545260429382324,-0.631535530090332
1773200121300916500,12.72791650390625,-1.0163021087646484,-0.05757284164428711,-1.3404407501220703
1773200121316938500,12.7439384765625,-1.0197819471359253,-0.5092954635620117,-1.941319465637207
1773200121332930000,12.759929931640626,-1.1677926778793335,-0.5033359527587891,-2.3577136993408203
1773200121348920300,12.77592041015625,-1.298067331314087,-0.13033199310302734,-2.469358444213867
1773200121364941300,12.79194140625,-1.5104045867919922,-0.16722822189331055,-2.6740217208862305
1773200121380932400,12.807932373046874,-1.7348456382751465,-0.6520695686340332,-2.4555206298828125
1773200121396925000,12.823925048828125,-1.8392999172210693,-1.0403332710266113,-2.071056365966797
1773200121412944400,12.8399443359375,-1.7168538570404053,-1.4089083671569824,-2.1581926345825195
1773200121428937000,12.85593701171875,-1.7562763690948486,-1.5438590049743652,-2.3310394287109375
1773200121444929300,12.87192919921875,-1.5461742877960205,-1.058335304260254,-2.7261619567871094
1773200121460919300,12.887919189453125,-1.030468225479126,-0.28696107864379883,-2.5493087768554688
1773200121476941600,12.903941650390625,-0.20159810781478882,0.41863250732421875,-1.8387126922607422
1773200121492932400,12.919932373046874,0.7400473952293396,0.6647372245788574,-1.1505985260009766
1773200121508923100,12.935923095703124,1.4817028045654297,0.5319361686706543,-0.48132896423339844
1773200121524914700,12.951914794921874,1.5180732011795044,0.10347604751586914,0.33395957946777344
1773200121540938000,12.96793798828125,1.0924932956695557,-0.25780820846557617,1.4787321090698242
1773200121556928500,12.983928466796876,0.7019158601760864,-0.5597548484802246,2.336564540863037
1773200121572918800,12.999918701171875,0.43242931365966797,-0.8975820541381836,2.663358688354492
1773200121588942000,13.015942138671875,0.5420347452163696,-1.2239813804626465,2.6219921112060547
1773200121604932000,13.03193212890625,0.891493558883667,-1.6103687286376953,2.6852259635925293
1773200121620923000,13.0479228515625,1.4093830585479736,-1.8210954666137695,2.6230859756469727
1773200121636915500,13.06391552734375,1.887035608291626,-1.8265633583068848,2.2470340728759766
1773200121652935700,13.079935791015625,2.527811050415039,-1.6182031631469727,1.5537505149841309
1773200121668927000,13.095927001953125,3.1188435554504395,-1.3285903930664062,1.0616884231567383
1773200121684917200,13.111917236328125,3.535632610321045,-1.0164618492126465,0.9196186065673828
1773200121700941300,13.12794140625,3.608480930328369,-0.43186092376708984,0.674354076385498
1773200121716931800,13.143931884765625,2.8487954139709473,0.2872166633605957,-0.18536853790283203
1773200121732921000,13.159921142578124,1.534834384918213,0.5439391136169434,-1.5870399475097656
1773200121748944100,13.175944091796875,0.48855799436569214,0.33055591583251953,-1.3613224029541016
1773200121764936700,13.191936767578126,0.1211748719215393,0.043684959411621094,0.333984375
1773200121780926500,13.207926513671875,0.3409843444824219,-0.16634559631347656,1.4939966201782227
1773200121796917500,13.22391748046875,0.6315665245056152,-0.2522144317626953,1.7691054344177246
1773200121812939500,13.239939453125,0.8793479800224304,-0.19060420989990234,1.4813828468322754
1773200121828930300,13.255930419921874,0.9691373109817505,-0.2611269950866699,1.1110811233520508
1773200121844921600,13.271921630859374,0.9473705887794495,-0.3637690544128418,1.0953373908996582
1773200121860914000,13.287913818359375,0.9937337040901184,-0.38678693771362305,1.0796046257019043
1773200121876934000,13.303933837890625,1.1593824625015259,-0.2703404426574707,0.8436460494995117
1773200121892926000,13.319926025390625,1.4176304340362549,0.06120157241821289,0.33871936798095703
1773200121908917500,13.33591748046875,1.2864631414413452,0.22521686553955078,-0.36737060546875
1773200121924939000,13.35193896484375,0.7338155508041382,0.35149621963500977,-0.9798803329467773
1773200121940930300,13.367930419921874,0.14310848712921143,0.5759878158569336,-1.3509817123413086
1773200121956921900,13.383921875,-0.6755618453025818,0.6584968566894531,-1.766439437866211
1773200121972941600,13.399941650390625,-1.425102949142456,0.8035411834716797,-1.9855375289916992
1773200121988936000,13.41593603515625,-1.736304521560669,0.7373085021972656,-2.269916534423828
1773200122004924700,13.431924560546875,-1.7964065074920654,0.3869457244873047,-2.77557373046875
1773200122020917000,13.4479169921875,-1.8556135892868042,-0.04960298538208008,-3.0380849838256836
1773200122036939800,13.463939697265625,-1.5933140516281128,-0.3725924491882324,-3.2922611236572266
1773200122052929500,13.479929443359374,-1.1400595903396606,-0.789008617401123,-3.449648857116699
1773200122068921000,13.495921142578124,-0.5973138809204102,-0.8359618186950684,-3.4280595779418945
1773200122084944600,13.511944580078126,0.34484368562698364,-0.19160223007202148,-3.1410017013549805
1773200122100934100,13.52793408203125,1.3591636419296265,0.9737906455993652,-2.8657684326171875
1773200122116925000,13.543925048828125,1.87376070022583,1.7383365631103516,-2.4603538513183594
1773200122132915500,13.55991552734375,1.9690651893615723,1.6877431869506836,-1.3950538635253906
1773200122148938200,13.575938232421874,1.8256394863128662,1.0768370628356934,0.19716739654541016
1773200122164930800,13.591930908203125,1.6022213697433472,0.08575582504272461,1.1176581382751465
1773200122180920800,13.6079208984375,1.1209166049957275,-0.7102799415588379,1.77593994140625
1773200122196943000,13.623943115234376,0.5284908413887024,-1.3161067962646484,1.879406452178955
1773200122212933400,13.639933349609375,-0.05446624755859375,-1.8917436599731445,1.5021343231201172
1773200122228926000,13.655926025390626,-0.4641314744949341,-2.4323792457580566,1.3070902824401855
1773200122244917000,13.6719169921875,-0.4808073043823242,-2.5333361625671387,1.3749666213989258
1773200122260938200,13.687938232421875,-0.3555150032043457,-2.3234710693359375,1.6301522254943848
1773200122276928500,13.703928466796874,-0.4266558885574341,-1.755235195159912,1.9705381393432617
1773200122292921000,13.719921142578125,-0.1906365156173706,-1.2600727081298828,1.7741808891296387
1773200122308941800,13.73594189453125,0.017873525619506836,-0.8244228363037109,1.3642311096191406
1773200122324932900,13.751932861328125,-0.515251874923706,-0.5477538108825684,1.4609928131103516
1773200122340925700,13.76792578125,-1.4798803329467773,-0.41586971282958984,1.9214062690734863
1773200122356917500,13.78391748046875,-2.2180848121643066,-0.3119184970855713,2.4554810523986816
1773200122372937700,13.799937744140625,-2.4856338500976562,-0.3158447742462158,2.8551111221313477
1773200122388928000,13.815927978515624,-2.4765124320983887,-0.32062363624572754,3.0550284385681152
1773200122404919000,13.8319189453125,-2.0567193031311035,-0.42303466796875,2.842495918273926
1773200122420941600,13.847941650390625,-1.4635318517684937,-0.6040441989898682,2.5677919387817383
1773200122436931000,13.86393115234375,-0.913481593132019,-0.6621813774108887,2.225066661834717
1773200122452924000,13.879923828125,-0.38236796855926514,-0.7653989791870117,1.9252538681030273
1773200122468946000,13.89594580078125,0.20874738693237305,-0.8597702980041504,1.87229585647583
1773200122484938000,13.91193798828125,0.5181832909584045,-0.646024227142334,1.7217144966125488
1773200122500929500,13.927929443359375,0.4342261552810669,-0.5161700248718262,1.325638771057129
1773200122516920800,13.9439208984375,0.10842645168304443,-0.2774219512939453,1.094975471496582
1773200122532941300,13.95994140625,-0.27442777156829834,-0.025313854217529297,0.7094697952270508
1773200122548931600,13.975931640625,-0.6050117015838623,0.3246622085571289,0.3495655059814453
1773200122564923100,13.991923095703125,-1.055185317993164,0.47720766067504883,0.06877517700195312
1773200122580913200,14.0079130859375,-1.2205448150634766,0.464479923248291,-0.2511558532714844
1773200122596938200,14.023938232421875,-1.1885395050048828,0.5582857131958008,-0.5710029602050781
1773200122612927500,14.039927490234374,-1.2440953254699707,0.49123525619506836,-1.0055408477783203
1773200122628920300,14.05592041015625,-0.9889923334121704,0.5777959823608398,-1.338846206665039
1773200122644940500,14.0719404296875,-0.9171112775802612,0.4387950897216797,-1.740849494934082
1773200122660932400,14.087932373046876,-1.1316295862197876,-0.024537086486816406,-2.3052845001220703
1773200122676924000,14.103923828125,-1.5278041362762451,-0.9896097183227539,-2.6672372817993164
1773200122692945400,14.1199453125,-1.8293430805206299,-1.7074031829833984,-2.717313766479492
1773200122708934100,14.13593408203125,-1.8268957138061523,-1.69866943359375,-2.985309600830078
1773200122724928800,14.1519287109375,-1.8964977264404297,-1.0850963592529297,-3.4571523666381836
1773200122740917800,14.167917724609374,-1.7662029266357422,-0.34904956817626953,-3.7873048782348633
1773200122756940500,14.1839404296875,-1.023194432258606,-0.011679649353027344,-3.671778678894043
1773200122772932400,14.199932373046876,0.047147512435913086,0.5316104888916016,-3.0886878967285156
1773200122788923400,14.21592333984375,0.8976941108703613,1.0177230834960938,-2.6935482025146484
1773200122804945400,14.2319453125,0.919894278049469,1.1260223388671875,-2.344477653503418
1773200122820935400,14.247935302734374,0.3453577756881714,0.7200632095336914,-1.4203767776489258
1773200122836926700,14.2639267578125,-0.3439238667488098,0.18030309677124023,0.14244365692138672
1773200122852917500,14.27991748046875,-0.8674585819244385,-0.20778417587280273,1.2398347854614258
1773200122868940500,14.2959404296875,-0.8815110921859741,-0.4817628860473633,1.8728694915771484
1773200122884930300,14.311930419921875,-0.4016484022140503,-0.7590136528015137,2.315308094024658
1773200122900923600,14.327923583984376,0.4542115032672882,-1.0699052810668945,2.5421152114868164
1773200122916945700,14.343945556640625,1.2992968559265137,-1.5411200523376465,2.4574337005615234
1773200122932936200,14.359936279296875,2.142979383468628,-2.054903030395508,2.386295795440674
1773200122948926200,14.37592626953125,2.869333267211914,-2.563096523284912,2.342587471008301
1773200122964918800,14.391918701171875,3.4609384536743164,-2.708169937133789,2.149613380432129
1773200122980940300,14.407940185546876,3.7584075927734375,-2.6451611518859863,1.688971996307373
1773200122996932600,14.4239326171875,3.779972791671753,-2.467197895050049,1.0525927543640137
1773200123012923000,14.4399228515625,3.7174441814422607,-2.0150842666625977,0.5205802917480469
1773200123028944000,14.45594384765625,3.300041675567627,-1.7524943351745605,0.3875265121459961
1773200123044936000,14.47193603515625,2.352296829223633,-1.445281982421875,0.760838508605957
1773200123060926700,14.4879267578125,1.313143014907837,-1.0556602478027344,0.9106535911560059
1773200123076917200,14.503917236328125,0.1513911485671997,-0.803471565246582,0.970069408416748
1773200123092939300,14.519939208984376,-1.0368144512176514,-0.622551441192627,0.9969801902770996
1773200123108929300,14.53592919921875,-1.9208903312683105,-0.6084136962890625,1.1500730514526367
1773200123124921900,14.551921875,-2.352027177810669,-0.7273545265197754,1.5431504249572754
1773200123140942600,14.567942626953124,-2.3242321014404297,-0.8672351837158203,2.0883045196533203
1773200123156935200,14.58393505859375,-1.9485645294189453,-1.0448236465454102,2.2007012367248535
1773200123172926700,14.5999267578125,-1.3644477128982544,-1.1084918975830078,1.8647408485412598
1773200123188917000,14.6159169921875,-0.5489829182624817,-1.368107795715332,1.2461133003234863
1773200123204940000,14.63193994140625,0.20523616671562195,-1.4419660568237305,0.8050861358642578
1773200123220931600,14.647931640625,0.7527174949645996,-1.4814338684082031,0.7022228240966797
1773200123236921000,14.663921142578126,0.9605168104171753,-1.448401927947998,0.7998900413513184
1773200123252942300,14.6799423828125,0.8080079555511475,-1.26539945602417,0.8258309364318848
1773200123268933400,14.695933349609374,0.4980640709400177,-0.889188289642334,0.6288051605224609
1773200123284924700,14.711924560546874,0.1398082673549652,-0.5864377021789551,0.47344207763671875
1773200123300916200,14.727916259765625,-0.3011088967323303,-0.26678037643432617,0.06885623931884766
1773200123316939300,14.743939208984376,-0.7166325449943542,-0.10421037673950195,-0.09101676940917969
1773200123332929300,14.75992919921875,-0.8976712822914124,-0.05519676208496094,-0.0986318588256836
1773200123348920600,14.775920654296876,-0.6607628464698792,0.04101419448852539,-0.07759952545166016
1773200123364941800,14.79194189453125,-0.19473117589950562,0.1892414093017578,-0.3055152893066406
1773200123380934100,14.80793408203125,0.15026187896728516,0.26699256896972656,-0.6000738143920898
1773200123396925400,14.823925537109375,0.527084469795227,0.31223154067993164,-0.9809455871582031
1773200123420942300,14.8479423828125,0.6929670572280884,0.5852580070495605,-1.487985610961914
1773200123436934100,14.86393408203125,0.7325456738471985,0.67132568359375,-1.8538885116577148
1773200123452924700,14.879924560546876,0.6774392127990723,0.6070041656494141,-1.589137077331543
1773200123468914400,14.89591455078125,0.6301707029342651,0.49811697006225586,-1.341268539428711
1773200123484938800,14.911938720703125,0.7081336975097656,0.44156551361083984,-1.0648469924926758
1773200123500928500,14.927928466796875,0.8929554224014282,0.5334901809692383,-0.8998889923095703
1773200123516920300,14.94392041015625,1.0644810199737549,0.6064863204956055,-0.8562440872192383
1773200123532941300,14.95994140625,1.078653335571289,0.5742921829223633,-0.59814453125
1773200123548935200,14.97593505859375,1.1835575103759766,0.5837464332580566,-0.37829113006591797
1773200123564925400,14.991925537109376,1.2616922855377197,0.588076114654541,-0.2489643096923828
1773200123580944600,15.007944580078124,1.3073008060455322,0.6479659080505371,-0.23138713836669922
1773200123596938500,15.0239384765625,1.2800298929214478,0.6206483840942383,-0.2027750015258789
1773200123612928500,15.039928466796875,0.9487608671188354,0.45197439193725586,-0.34644508361816406
1773200123628921000,15.055921142578125,0.5405517816543579,0.2312145233154297,-0.5873823165893555
1773200123644940800,15.07194091796875,0.30235743522644043,0.16058731079101562,-0.7097282409667969
1773200123660933600,15.08793359375,0.15351009368896484,0.20677995681762695,-0.7689847946166992
1773200123676924400,15.10392431640625,-0.027940750122070312,0.27550792694091797,-0.6021995544433594
1773200123692946000,15.11994580078125,-0.35925352573394775,0.3472466468811035,-0.5301971435546875
1773200123708936200,15.135936279296875,-0.36639654636383057,-0.10761356353759766,-0.2211761474609375
1773200123724929500,15.151929443359375,-0.00514674186706543,-0.541684627532959,0.19002723693847656
1773200123740919300,15.167919189453125,0.4820762276649475,-1.0369696617126465,0.3714132308959961
1773200123756942000,15.183942138671876,0.8022171258926392,-1.0894126892089844,0.5099992752075195
1773200123772931600,15.199931640625,1.2266349792480469,-0.9329628944396973,0.09548664093017578
1773200123788923400,15.21592333984375,1.0553414821624756,-0.873542308807373,-0.08624553680419922
1773200123804944000,15.23194384765625,0.2585352063179016,-1.0418882369995117,0.05513191223144531
1773200123820934700,15.2479345703125,-0.9770178198814392,-1.1547741889953613,0.5153799057006836
1773200123836928300,15.26392822265625,-2.0232019424438477,-1.2523002624511719,0.5632076263427734
1773200123852919600,15.27991943359375,-2.831740140914917,-1.1501731872558594,0.5072727203369141
1773200123868942000,15.295942138671874,-3.5586776733398438,-0.9894156455993652,0.2740297317504883
1773200123884931300,15.311931396484376,-4.037966728210449,-0.627537727355957,0.4790983200073242
1773200123900924000,15.327923828125,-3.9662463665008545,-0.27634525299072266,0.8362808227539062
1773200123916915000,15.3439150390625,-3.8064048290252686,0.10392141342163086,1.210200309753418
1773200123932937200,15.359937255859375,-3.787510871887207,0.28553295135498047,1.3608317375183105
1773200123948926000,15.375926025390624,-3.5471620559692383,0.3295578956604004,1.444678783416748
1773200123964918300,15.391918212890625,-3.0680274963378906,0.3246779441833496,1.4585990905761719
1773200123980939000,15.40793896484375,-2.6591618061065674,0.23760223388671875,1.441145896911621
1773200123996931800,15.423931884765626,-2.4241232872009277,0.14616155624389648,1.3076200485229492
1773200124012921900,15.439921875,-2.3494858741760254,0.051976680755615234,1.3045611381530762
1773200124028943000,15.455943115234374,-2.208043336868286,-0.1280207633972168,1.3209776878356934
1773200124044935400,15.471935302734375,-1.9552533626556396,-0.2702455520629883,1.237257480621338
1773200124060926500,15.487926513671875,-1.6155903339385986,-0.31223011016845703,0.834104061126709
1773200124076919600,15.50391943359375,-1.1835335493087769,-0.3311762809753418,0.5463123321533203
1773200124092938500,15.5199384765625,-0.8583207726478577,-0.31581783294677734,0.5991992950439453
1773200124108931000,15.53593115234375,-0.5984007716178894,-0.17330408096313477,0.5868015289306641
1773200124124922000,15.551922119140626,-0.32340431213378906,-0.09068155288696289,0.5192852020263672
1773200124140945000,15.56794482421875,-0.1270972490310669,0.18938684463500977,0.4745321273803711
1773200124156935400,15.583935302734375,-0.1301795244216919,0.47736310958862305,0.38189220428466797
1773200124172926200,15.59992626953125,-0.2968406677246094,0.7534918785095215,0.27083683013916016
1773200124188918800,15.615918701171875,-0.47171568870544434,0.88543701171875,0.17827796936035156
1773200124204939500,15.631939453125,-0.5977449417114258,0.9695701599121094,0.1601877212524414
1773200124220931000,15.64793115234375,-0.6435984373092651,0.9756293296813965,0.060855865478515625
1773200124236922600,15.663922607421876,-0.5269558429718018,1.0947039127349854,-0.049411773681640625
1773200124252942300,15.6799423828125,-0.34505903720855713,1.2325952053070068,-0.13362407684326172
1773200124268935200,15.69593505859375,-0.3826209306716919,1.2727010250091553,-0.4109830856323242
1773200124284926200,15.71192626953125,-0.5501421689987183,1.046485424041748,-0.7922706604003906
1773200124300918300,15.727918212890625,-0.6332230567932129,0.22906827926635742,-1.3464317321777344
1773200124316939800,15.743939697265626,-0.6078256368637085,-0.8759145736694336,-1.8185863494873047
1773200124332930300,15.759930419921876,-0.39487671852111816,-1.3840680122375488,-2.126668930053711
1773200124348921000,15.775921142578126,-0.08384263515472412,-1.3117594718933105,-2.751697540283203
1773200124364941800,15.79194189453125,0.0030050277709960938,-1.005763053894043,-3.500624656677246
1773200124380934100,15.80793408203125,-0.02490180730819702,-0.605717658996582,-3.9456300735473633
1773200124396927200,15.82392724609375,0.06779754161834717,-0.15857696533203125,-3.6794862747192383
1773200124412946000,15.83994580078125,0.0623205304145813,0.23601913452148438,-2.7331809997558594
1773200124428939000,15.85593896484375,-0.180519700050354,0.42150306701660156,-1.2986173629760742
1773200124444931000,15.87193115234375,-0.5824204683303833,0.5940265655517578,-0.25738048553466797
1773200124460919300,15.887919189453125,-1.098465085029602,0.6136741638183594,0.46921443939208984
1773200124476943400,15.903943359375,-1.5029220581054688,0.4555830955505371,1.1100406646728516
1773200124492933400,15.919933349609375,-1.6359219551086426,0.12039041519165039,1.6769189834594727
1773200124508924000,15.935923828125,-1.4953011274337769,-0.28885459899902344,2.2178549766540527
1773200124524946200,15.9519462890625,-1.1310760974884033,-0.8204236030578613,2.5810494422912598
1773200124540938800,15.967938720703126,-0.46409231424331665,-1.5276479721069336,2.537632942199707
1773200124556929500,15.983929443359376,0.0987362265586853,-2.203408718109131,2.360792636871338
1773200124572920000,15.999920166015626,0.5336649417877197,-2.7623133659362793,2.1463050842285156
1773200124588943000,16.015943115234375,1.1161054372787476,-2.9113996028900146,2.0104570388793945
1773200124604932000,16.03193212890625,1.7670512199401855,-2.688722848892212,1.7452526092529297
1773200124620924700,16.047924560546875,2.287492513656616,-2.457026481628418,1.455441951751709
1773200124636947500,16.063947509765626,2.731567859649658,-2.2012767791748047,1.2378177642822266
1773200124652938200,16.079938232421874,2.9252090454101562,-1.7366900444030762,1.0385069847106934
1773200124668928800,16.0959287109375,2.2560534477233887,-1.190751552581787,1.1269102096557617
1773200124684919600,16.11191943359375,0.9583265781402588,-0.8365635871887207,1.4853076934814453
1773200124700941600,16.127941650390625,-0.0579453706741333,-0.49470996856689453,1.624229907989502
1773200124716934000,16.143933837890625,-0.7996213436126709,-0.3209500312805176,1.8136377334594727
1773200124732925700,16.15992578125,-1.387512445449829,-0.3477296829223633,1.9545340538024902
1773200124748945200,16.175945068359376,-1.6925674676895142,-0.37009525299072266,1.9538555145263672
1773200124764938000,16.19193798828125,-1.7750235795974731,-0.3545842170715332,1.8507466316223145
1773200124780928000,16.207927978515624,-1.6588385105133057,-0.260744571685791,1.344071388244629
1773200124796920300,16.22392041015625,-1.004936933517456,-0.2863020896911621,0.5833978652954102
1773200124812943400,16.239943359375,-0.17336627840995789,-0.1475362777709961,0.15082645416259766
1773200124828933000,16.25593310546875,0.4196937382221222,-0.049594879150390625,-0.34680652618408203
1773200124844923000,16.2719228515625,0.6419669389724731,0.3243694305419922,-0.8688764572143555
1773200124860914400,16.28791455078125,0.6242436766624451,0.7520909309387207,-1.5020208358764648
1773200124876938800,16.303938720703126,0.4369441866874695,1.086899757385254,-2.144261360168457
1773200124892927700,16.319927734375,0.062205374240875244,1.4112868309020996,-2.517549514770508
1773200124908918300,16.335918212890626,-0.25778937339782715,1.5041842460632324,-2.54506254196167
1773200124924939800,16.351939697265625,-0.2593909502029419,1.7237510681152344,-2.364208698272705
1773200124940931300,16.367931396484376,-0.18058043718338013,1.76047945022583,-2.0697293281555176
1773200124956924200,16.383924072265625,-0.0002466440200805664,1.5876917839050293,-1.9014596939086914
1773200124972944100,16.399944091796876,0.2940957546234131,1.68060302734375,-1.8467984199523926
1773200124988937700,16.415937744140624,0.6730301976203918,1.713029384613037,-1.9592227935791016
1773200125004926200,16.43192626953125,0.873269259929657,1.774214744567871,-1.882514476776123
1773200125020917800,16.447917724609376,1.2357553243637085,1.7686872482299805,-1.9351906776428223
1773200125036940500,16.4639404296875,1.5434985160827637,1.6686291694641113,-2.103546619415283
1773200125052932000,16.47993212890625,1.8801895380020142,1.6031379699707031,-2.308298110961914
1773200125068922600,16.495922607421875,2.1891374588012695,1.561246395111084,-2.2444539070129395
1773200125084946400,16.511946533203126,2.1358325481414795,1.3192925453186035,-2.3677234649658203
1773200125100936200,16.527936279296874,1.7719612121582031,0.8788967132568359,-2.3354082107543945
1773200125116928000,16.543927978515626,1.5455138683319092,0.4732780456542969,-2.292942523956299
1773200125132918300,16.559918212890626,1.4891431331634521,0.45656299591064453,-2.382964611053467
1773200125148938800,16.575938720703125,1.4242677688598633,-0.056806087493896484,-2.3037643432617188
1773200125164932000,16.59193212890625,1.119398593902588,-0.8187594413757324,-2.1992673873901367
1773200125180923000,16.6079228515625,0.9030377864837646,-1.487626075744629,-1.9583516120910645
1773200125196946000,16.62394580078125,1.2590911388397217,-1.53348970413208,-1.5357975959777832
1773200125212934100,16.63993408203125,1.8486363887786865,-1.1975598335266113,-1.1130852699279785
1773200125228927700,16.655927734375,2.1445541381835938,-0.738532543182373,-1.2281618118286133
1773200125244919600,16.67191943359375,2.179619789123535,-0.4146890640258789,-0.9638023376464844
1773200125260941300,16.68794140625,2.108987808227539,-0.49521732330322266,0.2723822593688965
1773200125276931600,16.703931640625,1.571494221687317,-0.9345731735229492,1.6713547706604004
1773200125292921600,16.719921630859375,0.5205454230308533,-1.503218650817871,2.4598169326782227
1773200125316940800,16.74394091796875,-0.8777379989624023,-2.3637466430664062,2.572453498840332
1773200125332932900,16.759932861328124,-1.454264760017395,-2.6684017181396484,2.55610990524292
1773200125348922000,16.775922119140624,-1.5483546257019043,-2.996523857116699,2.2326278686523438
1773200125364944000,16.79194384765625,-1.6027326583862305,-2.9463696479797363,1.9648008346557617
1773200125380935400,16.807935302734375,-1.6391005516052246,-2.377776622772217,1.4901251792907715
1773200125396926700,16.8239267578125,-1.319787859916687,-2.033370018005371,1.039477825164795
1773200125412918500,16.83991845703125,-1.405356764793396,-1.599968433380127,1.032102108001709
1773200125428940000,16.85593994140625,-2.134180784225464,-1.1117033958435059,0.7752866744995117
1773200125444930600,16.8719306640625,-2.9749603271484375,-0.7838454246520996,0.5673794746398926
1773200125460883000,16.887883056640625,-3.6679811477661133,-0.5708513259887695,0.7674698829650879
1773200125476907500,16.903907470703125,-3.634108066558838,-0.3265810012817383,1.3346529006958008
1773200125492898000,16.91989794921875,-3.247816562652588,-0.13023853302001953,1.7414641380310059
1773200125508888300,16.935888427734376,-2.7657675743103027,-0.02808666229248047,1.9249601364135742
1773200125524910600,16.95191064453125,-2.0613245964050293,0.006160736083984375,1.8978281021118164
1773200125540902400,16.96790234375,-1.2767746448516846,-0.005216121673583984,1.652726173400879
1773200125556893200,16.98389306640625,-0.6604033708572388,-0.08877801895141602,1.4157166481018066
1773200125572882700,16.999882568359375,-0.14241063594818115,-0.2777528762817383,1.2668867111206055
1773200125588905000,17.015905029296874,0.32362115383148193,-0.4327268600463867,1.3526511192321777
1773200125604897500,17.0318974609375,0.8523872494697571,-0.44716596603393555,1.298140525817871
1773200125620888000,17.04788818359375,1.3749592304229736,-0.27946996688842773,1.3168525695800781
1773200125636910300,17.063910400390625,1.8696212768554688,-0.3398294448852539,1.3271384239196777
1773200125652902700,17.079902587890626,2.2898452281951904,-0.3299560546875,1.3161516189575195
1773200125668893700,17.095893798828126,2.469025135040283,-0.023125171661376953,1.2943077087402344
1773200125684883200,17.11188330078125,2.0332629680633545,0.23126649856567383,1.0542564392089844
1773200125700905000,17.127905029296876,1.1740548610687256,0.33957672119140625,0.6949906349182129
1773200125716898300,17.143898193359377,0.6497037410736084,0.6806449890136719,0.2770652770996094
1773200125732886500,17.159886474609376,0.3858048915863037,0.9126033782958984,-0.04018115997314453
1773200125748909800,17.175909912109375,0.27284252643585205,1.049314022064209,-0.5387935638427734
1773200125764900600,17.191900634765624,0.1597130298614502,1.1306629180908203,-0.9625988006591797
1773200125780893000,17.207892822265624,-0.10645484924316406,1.2995452880859375,-1.1156721115112305
1773200125796883000,17.223883056640624,-0.3446943759918213,1.5341956615447998,-1.372823715209961
1773200125812904400,17.239904541015626,-0.6345477104187012,1.5903072357177734,-1.8291549682617188
1773200125828896800,17.255896728515626,-0.813788890838623,1.3861415386199951,-2.1967906951904297
1773200125844887600,17.271887451171875,-0.8563964366912842,0.9938950538635254,-2.2663135528564453
1773200125860879600,17.287879638671875,-0.6985667943954468,0.13030147552490234,-2.311825752258301
1773200125876901000,17.303901123046874,-0.5305733680725098,-0.5776710510253906,-2.149136543273926
1773200125892890000,17.31989013671875,-0.13659930229187012,-1.6676106452941895,-2.0602684020996094
1773200125908880600,17.335880615234377,0.25384384393692017,-2.4445786476135254,-2.9013843536376953
1773200125924875500,17.35187548828125,0.5687462091445923,-2.355374336242676,-3.9518442153930664
1773200125940895500,17.3678955078125,0.5931833982467651,-1.1433534622192383,-3.8910369873046875
1773200125956888000,17.38388818359375,0.9137696623802185,-0.46515893936157227,-2.559999465942383
1773200125972909300,17.399909423828124,1.1825006008148193,-0.22536277770996094,-0.5359172821044922
1773200125988899300,17.4158994140625,1.2034715414047241,-0.3711552619934082,1.0294485092163086
1773200126004891400,17.431891357421875,0.9839116334915161,-0.7809028625488281,2.2650771141052246
1773200126020883500,17.447883544921876,0.5362608432769775,-0.8607296943664551,3.180128574371338
1773200126036905500,17.463905517578127,-0.18254095315933228,-0.9501962661743164,3.4658408164978027
1773200126052896500,17.479896484375,-0.8067255616188049,-0.945253849029541,3.160151958465576
1773200126068887300,17.49588720703125,-1.0455787181854248,-1.0871672630310059,2.9414820671081543
1773200126084908000,17.511907958984374,-0.8024024367332458,-1.4553346633911133,2.4030556678771973
1773200126100899300,17.5278994140625,-0.12079727649688721,-1.980586051940918,2.297658920288086
1773200126116892000,17.543891845703126,1.1136077642440796,-2.3746676445007324,2.1694483757019043
1773200126132882200,17.559882080078125,2.3016858100891113,-2.4995222091674805,1.7420077323913574
1773200126148904400,17.575904541015625,2.9320502281188965,-2.4161148071289062,1.1232190132141113
1773200126164896000,17.59189599609375,3.298180103302002,-2.2851357460021973,0.5814447402954102
1773200126180884500,17.607884521484376,3.383718967437744,-1.8847441673278809,0.2364788055419922
1773200126196908000,17.623907958984375,2.891878128051758,-1.2413196563720703,0.22084617614746094
1773200126212897800,17.639897705078123,1.9334428310394287,-0.666079044342041,0.22225284576416016
1773200126228889600,17.6558896484375,0.8169751763343811,-0.25048208236694336,0.07979774475097656
1773200126244882200,17.671882080078124,-0.298079252243042,0.027397632598876953,-0.06709003448486328
1773200126260901000,17.687901123046874,-1.1572749614715576,0.2990083694458008,0.12188339233398438
1773200126276894700,17.703894775390626,-1.4714677333831787,0.36607933044433594,0.3833732604980469
1773200126292885500,17.719885498046875,-1.4116688966751099,0.31023263931274414,0.6179685592651367
1773200126308904700,17.73590478515625,-1.2808482646942139,0.1132960319519043,0.5054240226745605
1773200126324897800,17.751897705078125,-0.9184113144874573,0.06705284118652344,0.13928985595703125
1773200126340889300,17.767889404296874,-0.3826327323913574,0.07056522369384766,-0.19140052795410156
1773200126356881400,17.78388134765625,0.04541093111038208,0.0793313980102539,-0.5061016082763672
1773200126372903400,17.7999033203125,0.2621627151966095,0.0476832389831543,-0.9159212112426758
1773200126388894700,17.815894775390625,0.5395634174346924,0.030916690826416016,-1.1619558334350586
1773200126404884700,17.831884765625,0.7999415993690491,0.03567934036254883,-1.0387163162231445
1773200126420906500,17.847906494140624,1.0580453872680664,0.08560323715209961,-0.8727998733520508
1773200126436898000,17.86389794921875,1.2154256105422974,0.10530662536621094,-0.5972270965576172
1773200126452887600,17.879887451171875,1.1748592853546143,0.09617996215820312,-0.2825431823730469
1773200126468910300,17.895910400390626,0.8409352898597717,0.06698751449584961,0.008313179016113281
1773200126484903700,17.911903564453127,0.5530909895896912,0.10477066040039062,0.3087501525878906
1773200126500891600,17.9278916015625,0.5252963900566101,0.17702770233154297,0.2873668670654297
1773200126516884500,17.943884521484375,0.5590554475784302,0.3513970375061035,0.05741119384765625
1773200126532906000,17.959906005859374,0.3977724015712738,0.3848557472229004,-0.22944259643554688
1773200126548897800,17.975897705078125,0.38239890336990356,0.48023462295532227,-0.3733386993408203
1773200126564888300,17.991888427734374,0.356203556060791,0.5770406723022461,-0.44176769256591797
1773200126580879000,18.007879150390625,0.29886603355407715,0.49286890029907227,-0.5200796127319336
1773200126596902100,18.023902099609376,0.21897181868553162,0.46242427825927734,-0.5114860534667969
1773200126612892200,18.03989208984375,-0.00012737512588500977,0.4094204902648926,-0.5710105895996094
1773200126628882200,18.055882080078124,-0.20836687088012695,0.26813507080078125,-0.6996641159057617
1773200126644906000,18.071906005859375,-0.36818981170654297,0.08007287979125977,-0.8923816680908203
1773200126660897500,18.0878974609375,-0.30176472663879395,-0.005042552947998047,-1.044891357421875
1773200126676888000,18.10388818359375,0.029044926166534424,-0.18659400939941406,-1.3201913833618164
1773200126692909600,18.11990966796875,-0.020621955394744873,-0.6446819305419922,-1.9782819747924805
1773200126708902000,18.13590185546875,-0.3704115152359009,-1.1757769584655762,-1.7195024490356445
1773200126724890600,18.151890625,-0.2719634771347046,-1.6794171333312988,-1.1894292831420898
1773200126740882400,18.16788232421875,0.19688451290130615,-1.7332706451416016,-0.8473615646362305
1773200126756905500,18.183905517578125,0.7723591923713684,-1.9274706840515137,-0.6717443466186523
1773200126772895500,18.1998955078125,0.9256991147994995,-2.0313448905944824,-0.6199483871459961
1773200126788886500,18.215886474609373,1.0125409364700317,-2.0881166458129883,-0.1456003189086914
1773200126804908500,18.231908447265624,0.6276724338531494,-2.046234130859375,0.7696971893310547
1773200126820898800,18.24789892578125,-0.17961478233337402,-2.2767581939697266,2.041754722595215
1773200126836891600,18.2638916015625,-1.2200661897659302,-2.397764205932617,3.2664451599121094
1773200126852882200,18.279882080078124,-1.7910622358322144,-2.373025894165039,3.7033634185791016
1773200126868904400,18.295904541015624,-2.2733049392700195,-2.3055434226989746,3.534384250640869
1773200126884895500,18.3118955078125,-2.690491199493408,-2.063936233520508,3.343686580657959
1773200126900886300,18.32788623046875,-3.1370418071746826,-1.7828049659729004,2.821895122528076
1773200126916908800,18.34390869140625,-3.402815341949463,-1.734875202178955,2.0421876907348633
1773200126932898800,18.35989892578125,-3.376081705093384,-1.6507749557495117,0.9871835708618164
1773200126948890600,18.375890625,-3.222095489501953,-1.6188888549804688,0.22443485260009766
1773200126964881700,18.391881591796874,-3.1156411170959473,-1.6611528396606445,0.23468589782714844
1773200126980905000,18.407905029296874,-2.8542985916137695,-1.778374195098877,0.45993709564208984
1773200126996895000,18.42389501953125,-2.3714823722839355,-1.736757755279541,0.4555473327636719
1773200127012885500,18.439885498046873,-2.006843090057373,-1.6735620498657227,0.5386438369750977
1773200127028907300,18.4559072265625,-1.8370189666748047,-1.5857844352722168,0.8564662933349609
1773200127044897800,18.471897705078124,-1.8092974424362183,-1.471240520477295,1.06807279586792
1773200127060891400,18.487891357421876,-1.823148488998413,-1.241124153137207,1.2148308753967285
1773200127076881200,18.503881103515624,-1.7536306381225586,-1.0629115104675293,1.2063255310058594
1773200127092903700,18.519903564453124,-1.4550755023956299,-0.8689112663269043,1.2651405334472656
1773200127108894000,18.53589404296875,-1.0806792974472046,-0.8224148750305176,1.2453503608703613
1773200127124883700,18.5518837890625,-0.7200369834899902,-0.8713192939758301,1.2397093772888184
1773200127140907000,18.567906982421874,-0.19233167171478271,-0.9218740463256836,1.3307342529296875
1773200127156900000,18.583900146484375,0.2018744945526123,-0.8689432144165039,1.3792743682861328
1773200127172890000,18.59989013671875,0.4006839990615845,-0.837975025177002,1.5618200302124023
1773200127188880000,18.6158798828125,0.48431146144866943,-0.7964191436767578,1.7718353271484375
1773200127204902400,18.63190234375,0.648621678352356,-0.7728843688964844,1.8844208717346191
1773200127220894700,18.647894775390625,0.7013187408447266,-0.7338876724243164,2.0331878662109375
1773200127236885200,18.66388525390625,0.4034668207168579,-0.7193293571472168,1.8212580680847168
1773200127252905500,18.679905517578124,-0.23578548431396484,-0.5568795204162598,1.5793733596801758
1773200127268896000,18.69589599609375,-0.544776201248169,-0.24237585067749023,1.3560175895690918
1773200127284889000,18.71188916015625,-0.4700723886489868,-0.027161598205566406,1.292320728302002
1773200127300879400,18.72787939453125,-0.4003021717071533,0.05030345916748047,1.2064542770385742
1773200127316903000,18.74390283203125,-0.25010573863983154,0.06948661804199219,0.9598579406738281
1773200127332893200,18.75989306640625,-0.3332277536392212,0.33106374740600586,0.48447322845458984
1773200127348884000,18.775884033203123,-0.46699023246765137,0.6853194236755371,0.14916706085205078
1773200127364905500,18.791905517578126,-0.545649528503418,0.8361434936523438,-0.2716331481933594
1773200127380898000,18.80789794921875,-0.5275293588638306,0.8443665504455566,-0.32836437225341797
1773200127396889600,18.8238896484375,-0.36732399463653564,0.8370928764343262,-0.4841880798339844
1773200127412911000,18.8399111328125,-0.1611928939819336,0.9225139617919922,-0.7076292037963867
1773200127428901000,18.855901123046873,0.03649580478668213,0.8313531875610352,-1.038569450378418
1773200127444893400,18.8718935546875,0.324454665184021,0.6527881622314453,-1.1640453338623047
1773200127460883000,18.887883056640625,0.6336456537246704,0.4044628143310547,-1.2309885025024414
1773200127476875800,18.903875732421874,0.9822369813919067,-0.0492253303527832,-1.4461803436279297
1773200127492898000,18.91989794921875,1.4985265731811523,-0.1690044403076172,-1.5018253326416016
1773200127508888000,18.93588818359375,2.2022178173065186,0.22817659378051758,-1.660715103149414
1773200127524880100,18.951880126953125,2.593475818634033,0.6875662803649902,-2.373847007751465
1773200127540899300,18.9678994140625,2.3924434185028076,0.9353675842285156,-2.660306930541992
1773200127556892000,18.983891845703123,1.8705945014953613,0.844916820526123,-2.0057802200317383
1773200127572884700,18.999884765625,1.4576520919799805,0.5145010948181152,-0.28129005432128906
1773200127588906500,19.015906494140626,1.4415513277053833,0.2801332473754883,0.7281394004821777
1773200127604897500,19.0318974609375,1.109471082687378,-0.05138206481933594,0.9193143844604492
1773200127620886000,19.047885986328126,0.5013251304626465,-0.5327877998352051,0.6323628425598145
1773200127636909300,19.063909423828125,-0.31857895851135254,-1.1155261993408203,0.15874195098876953
1773200127652900600,19.079900634765625,-1.0691629648208618,-1.2710962295532227,-0.5373945236206055
1773200127668891400,19.095891357421873,-1.2158657312393188,-1.3140912055969238,-1.1081724166870117
1773200127684884000,19.111884033203125,-0.14958548545837402,-1.6131038665771484,-1.550551414489746
1773200127700904400,19.127904541015624,1.1620453596115112,-1.7995619773864746,-1.3572216033935547
1773200127716896800,19.143896728515625,1.7328906059265137,-1.9032249450683594,-1.1405162811279297
1773200127732886800,19.15988671875,1.3394418954849243,-1.667633056640625,-0.5237865447998047
1773200127748908300,19.175908203125,0.4335983991622925,-1.3744187355041504,0.2994575500488281
1773200127764898000,19.19189794921875,-0.3842010498046875,-1.2054367065429688,1.1595797538757324
1773200127780890000,19.20789013671875,-0.8640607595443726,-1.1017799377441406,1.7899489402770996
1773200127796883000,19.223883056640624,-0.893203854560852,-1.040968894958496,2.2110395431518555
1773200127812903200,19.239903076171874,-0.5574649572372437,-0.8732681274414062,2.277379035949707
1773200127828895200,19.255895263671874,-0.1760556697845459,-0.5784487724304199,1.762585163116455
1773200127844885800,19.2718857421875,-0.1950228214263916,-0.5292367935180664,1.0210528373718262
1773200127860876800,19.287876708984374,-0.4241722822189331,-0.566220760345459,0.56072998046875
1773200127876899800,19.30389990234375,-0.07687807083129883,-0.6667461395263672,0.36901092529296875
1773200127892889300,19.319889404296877,0.7299650311470032,-0.8145184516906738,0.33132362365722656
1773200127908881700,19.335881591796873,1.486989140510559,-1.0505290031433105,0.09209728240966797
1773200127924904400,19.351904541015625,1.8095307350158691,-1.2810568809509277,-0.2679176330566406
1773200127940895500,19.3678955078125,1.8317968845367432,-1.3729181289672852,-0.19994068145751953
1773200127956887000,19.383886962890625,1.8860260248184204,-1.387444019317627,-0.004486083984375
1773200127972907500,19.399907470703123,1.9514305591583252,-1.2727560997009277,0.37245607376098633
1773200127988898600,19.415898681640623,2.0229501724243164,-1.0741381645202637,0.6153450012207031
1773200128004889600,19.4318896484375,1.7086820602416992,-0.6158413887023926,0.5460329055786133
1773200128020880600,19.447880615234375,1.1407599449157715,-0.23379182815551758,0.41356372833251953
1773200128036903700,19.463903564453126,0.858394980430603,0.08951616287231445,0.35975122451782227
1773200128052893200,19.47989306640625,1.105762243270874,0.42230892181396484,0.07790279388427734
1773200128068884500,19.495884521484374,1.3540695905685425,0.6948943138122559,-0.29098033905029297
1773200128084908000,19.511907958984374,1.455026388168335,0.9893255233764648,-0.723388671875
1773200128100897300,19.527897216796877,1.317873239517212,1.1287975311279297,-1.0021600723266602
1773200128116890400,19.543890380859374,1.3240852355957031,0.9946732521057129,-1.0263671875
1773200128132880100,19.559880126953125,1.494316816329956,0.6234378814697266,-1.0155391693115234
1773200128148903400,19.5759033203125,1.7727125883102417,0.3391842842102051,-1.1889839172363281
1773200128164894200,19.591894287109376,1.8664517402648926,0.18501949310302734,-1.3942546844482422
1773200128180885500,19.607885498046876,1.8486329317092896,0.2194075584411621,-1.481001853942871
1773200128196907500,19.623907470703124,1.959340214729309,0.6215114593505859,-1.4458684921264648
1773200128212897300,19.639897216796875,2.086843490600586,1.1813116073608398,-1.3703594207763672
1773200128228889000,19.65588916015625,1.9594614505767822,1.742675542831421,-1.4648933410644531
1773200128244880000,19.6718798828125,1.362917184829712,1.9766192436218262,-1.1562881469726562
1773200128260902000,19.68790185546875,0.7678919434547424,1.8000528812408447,-0.6296520233154297
1773200128276893400,19.7038935546875,0.40765661001205444,1.5864038467407227,-0.22926902770996094
1773200128292883700,19.7198837890625,0.12437605857849121,1.2951254844665527,-0.11415290832519531
1773200128308907000,19.735906982421874,0.03242778778076172,1.0749526023864746,-0.07916736602783203
1773200128324896800,19.751896728515625,0.05472290515899658,0.9833874702453613,-0.2614727020263672
1773200128340888800,19.767888916015625,0.22679483890533447,0.8449063301086426,-0.6605863571166992
1773200128356880400,19.78388037109375,0.19485008716583252,0.9356708526611328,-0.9998970031738281
1773200128372900400,19.799900390625,-0.08405017852783203,0.952232837677002,-1.0669994354248047
1773200128388890400,19.815890380859376,-0.32616937160491943,0.8675022125244141,-0.9808864593505859
1773200128404883500,19.831883544921876,-0.5203826427459717,0.7225251197814941,-0.785731315612793
1773200128420906200,19.84790625,-0.6660729646682739,0.568486213684082,-0.4916858673095703
1773200128436896800,19.863896728515623,-0.9357912540435791,0.48355770111083984,-0.20028305053710938
1773200128452888300,19.879888427734375,-1.078704595565796,0.46177244186401367,0.038575172424316406
1773200128468880100,19.895880126953124,-1.1380836963653564,0.5039677619934082,0.18087291717529297
1773200128484900400,19.911900390625,-1.1758378744125366,0.4513559341430664,0.33465576171875
1773200128500891400,19.927891357421874,-1.0904135704040527,0.39623498916625977,0.581305980682373
1773200128516884700,19.943884765625,-0.9851880073547363,0.36887264251708984,0.6981062889099121
1773200128532905200,19.9599052734375,-0.8735374212265015,0.33058786392211914,0.5056509971618652
1773200128548896500,19.975896484375,-0.7389452457427979,0.31371593475341797,0.31148529052734375
1773200128564886500,19.991886474609377,-0.5976992845535278,0.1997365951538086,0.2520475387573242
1773200128580878000,20.007878173828125,-0.5097507238388062,0.17615461349487305,0.0659646987915039
1773200128596900900,20.02390087890625,-0.30980801582336426,0.1665339469909668,-0.23629188537597656
1773200128612891400,20.039891357421876,-0.21145665645599365,0.14609432220458984,-0.4262962341308594
1773200128628881700,20.055881591796876,-0.12726211547851562,0.09791898727416992,-0.6014652252197266
1773200128644904200,20.071904296875,-0.13310730457305908,0.14170312881469727,-0.8745555877685547
1773200128660897300,20.087897216796875,-0.20822656154632568,0.06775856018066406,-0.7766618728637695
1773200128676887000,20.103886962890623,-0.27917373180389404,0.17831182479858398,-0.4903221130371094
1773200128692907000,20.119906982421874,-0.44701480865478516,0.2968711853027344,-0.4404582977294922
1773200128708899300,20.1358994140625,-0.6486549377441406,0.3647785186767578,-0.3496208190917969
1773200128724888800,20.151888916015626,-0.7617110013961792,0.2780489921569824,-0.16782855987548828
1773200128740881200,20.167881103515626,-0.7353881597518921,0.22198820114135742,-0.16052722930908203
1773200128756904200,20.183904296875,-0.7667281627655029,0.10800838470458984,-0.08722591400146484
1773200128772896000,20.19989599609375,-0.770633339881897,-0.01387166976928711,-0.11180686950683594
1773200128788887000,20.215886962890625,-0.7060372829437256,-0.1143798828125,-0.0929880142211914
1773200128804907800,20.23190771484375,-0.5135453939437866,-0.2144336700439453,-0.035419464111328125
1773200128820898600,20.247898681640624,-0.311393141746521,-0.2026500701904297,-0.097198486328125
1773200128836891100,20.26389111328125,-0.2998371124267578,-0.22656488418579102,-0.21295833587646484
1773200128852880100,20.279880126953124,-0.31679344177246094,-0.2842836380004883,-0.2740821838378906
1773200128868902400,20.29590234375,-0.11473333835601807,-0.35353612899780273,-0.17641067504882812
1773200128884895000,20.31189501953125,0.21027636528015137,-0.29127931594848633,-0.24746322631835938
1773200128900885200,20.32788525390625,0.361234188079834,-0.03883695602416992,-0.28681373596191406
1773200128916908300,20.343908203125,0.171006441116333,0.31136560440063477,-0.3578615188598633
1773200128932898300,20.359898193359374,-0.1645669937133789,0.6796188354492188,-0.8442716598510742
1773200128948889000,20.37588916015625,-0.07466757297515869,0.847221851348877,-1.389735221862793
