time,seconds_elapsed,z,y,x
1773200109028848400,0.455848388671875,0.25534167885780334,0.1875356286764145,0.19425514340400696
1773200109044933000,0.47193310546875,0.25534167885780334,0.1875356286764145,0.19425514340400696
1773200109060921300,0.48792138671875,0.25534167885780334,0.1875356286764145,0.19425514340400696
1773200109076914200,0.5039140625,0.25534167885780334,0.1875356286764145,0.19425514340400696
1773200109092792300,0.519792236328125,0.25534167885780334,0.1875356286764145,0.19425514340400696
1773200109108928300,0.53592822265625,0.25534167885780334,0.1875356286764145,0.19425514340400696
1773200109124919000,0.5519189453125,0.25534167885780334,0.1875356286764145,0.19425514340400696
1773200109140942000,0.567942138671875,0.06475171446800232,0.051312681287527084,-0.012217304669320583
1773200109156932000,0.58393212890625,0.06658431142568588,0.11850785464048386,-0.036041051149368286
1773200109204935700,0.631935791015625,0.045204028487205505,0.21868975460529327,-0.009162978269159794
1773200109220927700,0.647927734375,-0.02871066704392433,0.11484266817569733,0.009162978269159794
1773200109236918800,0.663918701171875,-0.1014036312699318,0.02015855349600315,0.01710422709584236
1773200109252940300,0.679940185546875,-0.13439035415649414,-0.054367005825042725,0.0006108652451075613
1773200109268931000,0.69593115234375,-0.1417207419872284,-0.03848451003432274,-0.030543262138962746
1773200109284921900,0.711921875,-0.12400564551353455,0.07208210229873657,-0.04886921867728233
1773200109300914700,0.727914794921875,-0.12828169763088226,0.1563815027475357,-0.039706241339445114
1773200109316935700,0.743935791015625,-0.1563815027475357,0.19425514340400696,-0.02015855349600315
1773200109332936000,0.75993603515625,-0.17348572611808777,0.17043140530586243,-0.006719517521560192
1773200109348915000,0.7759150390625,-0.16004669666290283,0.11850785464048386,-0.02382374368607998
1773200109364937700,0.791937744140625,-0.15271630883216858,0.08918632566928864,-0.06291911751031876
1773200109380930600,0.8079306640625,-0.15393804013729095,0.09224065393209457,-0.10506882518529892
1773200109396921900,0.823921875,-0.15515977144241333,0.10445795953273773,-0.1270599663257599
1773200109412942300,0.8399423828125,-0.15760323405265808,0.13255776464939117,-0.12034045159816742
1773200109428934700,0.8559345703125,-0.15821409225463867,0.13927727937698364,-0.09468411654233932
1773200109444924400,0.87192431640625,-0.13866640627384186,0.13988813757896423,-0.07024950534105301
1773200109460916000,0.887916015625,-0.11728613078594208,0.1062905490398407,-0.07696902006864548
1773200109476939300,0.903939208984375,-0.1160643994808197,0.0403171069920063,-0.11545353382825851
1773200109500927700,0.927927734375,-0.11850785464048386,0.006719517521560192,-0.13316862285137177
1773200109516918300,0.943918212890625,-0.1215621829032898,0.025045474991202354,-0.09712757170200348
1773200109532937700,0.959937744140625,-0.12767083942890167,0.05253441259264946,-0.05314527451992035
1773200109548931300,0.975931396484375,-0.11850785464048386,0.08002334833145142,-0.01771509274840355
1773200109564919800,0.991919921875,-0.1014036312699318,0.09834930300712585,-0.02076941914856434
1773200109580910800,1.007910888671875,-0.08368854224681854,0.09407325088977814,-0.06414084881544113
1773200109596935200,1.02393505859375,-0.08368854224681854,0.02626720629632473,-0.12461651116609573
1773200109612926500,1.039926513671875,-0.08979719132184982,-0.05497787147760391,-0.15332718193531036
1773200109628916500,1.05591650390625,-0.11056660860776901,-0.0757472887635231,-0.17898350954055786
1773200109644939800,1.071939697265625,-0.152105450630188,-0.036651913076639175,-0.17776179313659668
1773200109660928000,1.087927978515625,-0.182648703455925,0.05192354694008827,-0.1661553531885147
1773200109676920600,1.103920654296875,-0.17043140530586243,0.06169738993048668,-0.152105450630188
1773200109692912000,1.119912109375,-0.1563815027475357,0.01160643994808197,-0.13866640627384186
1773200109708934100,1.13593408203125,-0.16310101747512817,-0.060475658625364304,-0.1111774742603302
1773200109724924700,1.151924560546875,-0.17592918872833252,-0.09407325088977814,-0.05803219974040985
1773200109740916000,1.167916015625,-0.17959438264369965,-0.10384709388017654,-0.013439035043120384
1773200109756938200,1.183938232421875,-0.182648703455925,-0.12095131725072861,0.022602014243602753
1773200109772928500,1.199928466796875,-0.1875356286764145,-0.12400564551353455,0.02687807008624077
1773200109788921900,1.215921875,-0.18936823308467865,-0.11056660860776901,0.019547687843441963
1773200109804944000,1.23194384765625,-0.192422553896904,-0.11301007121801376,0.022602014243602753
1773200109820935200,1.24793505859375,-0.19120082259178162,-0.11728613078594208,0.028099801391363144
1773200109836925200,1.26392529296875,-0.15882496535778046,-0.09773843735456467,0.036651913076639175
1773200109852914200,1.2799140625,-0.1160643994808197,-0.09529497474431992,0.04214970022439957
1773200109868936400,1.2959365234375,-0.10751228034496307,-0.11789698898792267,0.03787364438176155
1773200109884927500,1.311927490234375,-0.11667526513338089,-0.1472185254096985,0.02687807008624077
1773200109900919800,1.327919921875,-0.10873401165008545,-0.14905111491680145,-0.006108652334660292
1773200109916942300,1.3439423828125,-0.07208210229873657,-0.1466076523065567,-0.036651913076639175
1773200109932933000,1.35993310546875,-0.05253441259264946,-0.1514945775270462,-0.03298672288656235
1773200109948923100,1.375923095703125,-0.07757988572120667,-0.17531833052635193,0.01771509274840355
1773200109964915500,1.39191552734375,-0.10262536257505417,-0.18020524084568024,0.07513642311096191
1773200109980935700,1.407935791015625,-0.1319468915462494,-0.1716531366109848,0.1368338167667389
1773200109996929500,1.423929443359375,-0.15760323405265808,-0.13561208546161652,0.15760323405265808
1773200110012919300,1.439919189453125,-0.18387043476104736,-0.08674286305904388,0.15943582355976105
1773200110028942600,1.455942626953125,-0.17531833052635193,-0.039706241339445114,0.13011430203914642
1773200110044931800,1.471931884765625,-0.14966198801994324,-0.033597588539123535,0.06841690838336945
1773200110060924400,1.48792431640625,-0.12339477986097336,-0.06719517707824707,0.012217304669320583
1773200110076916200,1.503916259765625,-0.08735372871160507,-0.12461651116609573,-0.04459316283464432
1773200110092936400,1.5199365234375,-0.05619960278272629,-0.13316862285137177,-0.07819075137376785
1773200110108928000,1.535927978515625,-0.04642575979232788,-0.16065755486488342,-0.07330382615327835
1773200110124920600,1.551920654296875,-0.05742133408784866,-0.16859880089759827,-0.051312681287527084
1773200110140942300,1.5679423828125,-0.06291911751031876,-0.17043140530586243,0.01038470957428217
1773200110156931600,1.583931640625,-0.04886921867728233,-0.1111774742603302,0.07880161702632904
1773200110172924200,1.599924072265625,-0.03726277872920036,-0.031154127791523933,0.13377949595451355
1773200110188915700,1.615915771484375,-0.039706241339445114,-0.010995574295520782,0.11972958594560623
1773200110204937500,1.6319375,-0.04642575979232788,-0.042760565876960754,0.05253441259264946
1773200110220927500,1.647927490234375,-0.05619960278272629,-0.09957103431224823,-0.009773843921720982
1773200110236920000,1.663920166015625,-0.06719517707824707,-0.15271630883216858,-0.0555887371301651
1773200110252941800,1.67994189453125,-0.054367005825042725,-0.15515977144241333,-0.0708603709936142
1773200110268931000,1.69593115234375,-0.009162978269159794,-0.11545353382825851,-0.06108652427792549
1773200110284921600,1.711921630859375,0.021991148591041565,-0.08979719132184982,-0.02932153269648552
1773200110300915000,1.7279150390625,0.027488935738801956,-0.07330382615327835,0.014049900695681572
1773200110316936400,1.7439365234375,0.01771509274840355,-0.059864792972803116,0.04398229718208313
1773200110332926000,1.759926025390625,0.015882495790719986,-0.07819075137376785,0.05864306539297104
1773200110348919300,1.775919189453125,0.04092797264456749,-0.13072516024112701,0.05925392732024193
1773200110364938800,1.791938720703125,0.05864306539297104,-0.17592918872833252,0.05375614017248154
1773200110380930600,1.8079306640625,0.03726277872920036,-0.17776179313659668,0.045204028487205505
1773200110396923000,1.8239228515625,-0.00427605677396059,-0.11301007121801376,0.018936822190880775
1773200110412913700,1.83991357421875,-0.027488935738801956,-0.06414084881544113,-0.01466076634824276
1773200110428613000,1.855613037109375,-0.04703662544488907,-0.02932153269648552,-0.059864792972803116
1773200110444925000,1.871925048828125,-0.056810468435287476,0.0012217304902151227,-0.07147123664617538
1773200110460917200,1.887917236328125,-0.0354301854968071,-0.0012217304902151227,-0.03848451003432274
1773200110476940300,1.903940185546875,0.010995574295520782,-0.03726277872920036,0.036041051149368286
1773200110492929500,1.919929443359375,0.02687807008624077,-0.04153883829712868,0.10445795953273773
1773200110508922000,1.935922119140625,0.02321287989616394,-0.004886921960860491,0.14416420459747314
1773200110524944100,1.951944091796875,0.01160643994808197,0.024434609338641167,0.13316862285137177
1773200110540935000,1.967934814453125,0,0.018936822190880775,0.07880161702632904
1773200110556927700,1.983927734375,0.007941247895359993,-0.02687807008624077,0.01038470957428217
1773200110572916200,1.999916259765625,0.027488935738801956,-0.0959058403968811,-0.06780604273080826
1773200110588941000,2.015941162109375,0.036041051149368286,-0.12522737681865692,-0.09468411654233932
1773200110604931600,2.031931640625,0.0659734457731247,-0.07147123664617538,-0.054367005825042725
1773200110620923000,2.0479228515625,0.07513642311096191,-0.003054326167330146,0.01710422709584236
1773200110636944000,2.06394384765625,0.05742133408784866,0.06352998316287994,0.09162978827953339
1773200110652936000,2.07993603515625,0.04703662544488907,0.07147123664617538,0.12828169763088226
1773200110668924400,2.09592431640625,0.04581489413976669,0.05925392732024193,0.14049901068210602
1773200110684915500,2.11191552734375,0.04948008432984352,0.04092797264456749,0.14233160018920898
1773200110700940000,2.12793994140625,0.07208210229873657,0.019547687843441963,0.12461651116609573
1773200110716929500,2.143929443359375,0.10201449692249298,-0.010995574295520782,0.09407325088977814
1773200110732920800,2.1599208984375,0.11484266817569733,-0.02321287989616394,0.02626720629632473
1773200110748941600,2.175941650390625,0.1368338167667389,-0.01771509274840355,-0.05314527451992035
1773200110764934100,2.19193408203125,0.12828169763088226,0.009162978269159794,-0.15577064454555511
1773200110788920600,2.215920654296875,0.05925392732024193,-0.05497787147760391,-0.3176499307155609
1773200110804942600,2.231942626953125,0.01771509274840355,-0.16554448008537292,-0.4331034719944
1773200110820935400,2.247935302734375,-0.001832595793530345,-0.21563543379306793,-0.44715335965156555
1773200110836926000,2.263926025390625,-0.007941247895359993,-0.20891591906547546,-0.3543018400669098
1773200110852915500,2.27991552734375,0.010995574295520782,-0.11972958594560623,-0.20586158335208893
1773200110868939500,2.295939453125,0.05192354694008827,0.009162978269159794,-0.021380282938480377
1773200110884928000,2.311927978515625,0.07941248267889023,0.11239920556545258,0.07757988572120667
1773200110900920600,2.327920654296875,0.08552113175392151,0.1264491081237793,0.06963863968849182
1773200110916943000,2.343943115234375,0.08918632566928864,0.06414084881544113,-0.00733038317412138
1773200110932933600,2.35993359375,0.1014036312699318,-0.02687807008624077,-0.09773843735456467
1773200110948923100,2.375923095703125,0.10690141469240189,-0.08674286305904388,-0.1569923609495163
1773200110964917200,2.391917236328125,0.1111774742603302,-0.06536258012056351,-0.19120082259178162
1773200110980938200,2.407938232421875,0.11239920556545258,0.02076941914856434,-0.182648703455925
1773200110996929500,2.423929443359375,0.10873401165008545,0.1661553531885147,-0.14477506279945374
1773200111012921000,2.439921142578125,0.10506882518529892,0.3390302062034607,-0.1062905490398407
1773200111028942000,2.455942138671875,0.12034045159816742,0.44776421785354614,-0.0708603709936142
1773200111044933600,2.47193359375,0.13255776464939117,0.4502076804637909,-0.056810468435287476
1773200111060926200,2.48792626953125,0.14049901068210602,0.3072652220726013,-0.024434609338641167
1773200111076915200,2.503915283203125,0.1111774742603302,0.21991148591041565,-0.03848451003432274
1773200111092936700,2.519936767578125,0.05497787147760391,0.17287486791610718,-0.06291911751031876
1773200111108930600,2.5359306640625,0.018936822190880775,0.14477506279945374,-0.08307767659425735
1773200111124920800,2.5519208984375,-0.00733038317412138,0.09407325088977814,-0.1160643994808197
1773200111140940800,2.56794091796875,0.00733038317412138,0.051312681287527084,-0.1258382350206375
1773200111156933400,2.583933349609375,0.045204028487205505,0.02015855349600315,-0.09957103431224823
1773200111172922600,2.599922607421875,0.07513642311096191,0.048258353024721146,-0.04642575979232788
1773200111188915200,2.615915283203125,0.11484266817569733,0.09957103431224823,0.04398229718208313
1773200111204938000,2.63193798828125,0.16554448008537292,0.11423180252313614,0.09529497474431992
1773200111220927000,2.647927001953125,0.22602014243602753,0.13805554807186127,0.11789698898792267
1773200111236919600,2.66391943359375,0.24495697021484375,0.1472185254096985,0.10690141469240189
1773200111252942600,2.679942626953125,0.2742784917354584,0.14477506279945374,0.0806342139840126
1773200111268933000,2.69593310546875,0.30604347586631775,0.13072516024112701,0.08429940044879913
1773200111284922000,2.711922119140625,0.36590829491615295,0.192422553896904,0.1368338167667389
1773200111300914200,2.7279140625,0.4178318381309509,0.2742784917354584,0.19425514340400696
1773200111316937500,2.7439375,0.4502076804637909,0.37262779474258423,0.2125810980796814
1773200111332928500,2.759928466796875,0.46670106053352356,0.413555771112442,0.17287486791610718
1773200111348919300,2.775919189453125,0.4746423065662384,0.3646865487098694,0.1160643994808197
1773200111364939500,2.791939453125,0.46364670991897583,0.2382374405860901,0.11667526513338089
1773200111380933000,2.80793310546875,0.44226643443107605,0.17104226350784302,0.19486601650714874
1773200111396923600,2.823923583984375,0.4239404797554016,0.25106561183929443,0.30482175946235657
1773200111412915500,2.83991552734375,0.4153883755207062,0.32620203495025635,0.36651915311813354
1773200111428935200,2.85593505859375,0.4098905920982361,0.3090978264808655,0.4288274049758911
1773200111444927200,2.87192724609375,0.39645153284072876,0.19914206862449646,0.49296826124191284
1773200111460920000,2.887920166015625,0.3390302062034607,0.1062905490398407,0.543059229850769
1773200111476941000,2.903941162109375,0.27977627515792847,0.07880161702632904,0.5204572081565857
1773200111492932000,2.91993212890625,0.23335053026676178,0.07330382615327835,0.3903428912162781
1773200111508923600,2.935923583984375,0.23640485107898712,0.09651670604944229,0.2119702398777008
1773200111524913200,2.9519130859375,0.20830504596233368,0.05925392732024193,-0.018936822190880775
1773200111540935400,2.967935302734375,0.1258382350206375,-0.018936822190880775,-0.19608774781227112
1773200111556928300,2.98392822265625,0.021380282938480377,-0.1270599663257599,-0.3084869384765625
1773200111572916500,2.99991650390625,-0.04214970022439957,-0.17959438264369965,-0.3017674386501312
1773200111588939500,3.015939453125,-0.13988813757896423,-0.15515977144241333,-0.1667662113904953
1773200111604929300,3.03192919921875,-0.23640485107898712,-0.028099801391363144,0
1773200111620923000,3.0479228515625,-0.32498031854629517,0.1270599663257599,0.17531833052635193
1773200111636944600,3.063944580078125,-0.3646865487098694,0.16493362188339233,0.25961771607398987
1773200111652933400,3.079933349609375,-0.423329621553421,0.12339477986097336,0.26022860407829285
1773200111668925200,3.09592529296875,-0.48380526900291443,0.11850785464048386,0.21013765037059784
1773200111684918500,3.11191845703125,-0.4917465150356293,0.18448130786418915,0.1264491081237793
1773200111700941300,3.12794140625,-0.42088615894317627,0.21991148591041565,0.05742133408784866
1773200111716930800,3.143930908203125,-0.304210901260376,0.26022860407829285,0.00366519158706069
1773200111732921000,3.159921142578125,-0.2015855312347412,0.28466320037841797,-0.009773843921720982
1773200111748942300,3.1759423828125,-0.09957103431224823,0.2932153046131134,0.025045474991202354
1773200111764933000,3.19193310546875,-0.003054326167330146,0.31642818450927734,0.09224065393209457
1773200111780925000,3.207925048828125,0.10323622822761536,0.35124751925468445,0.13561208546161652
1773200111796918800,3.223918701171875,0.15515977144241333,0.35735616087913513,0.12034045159816742
1773200111812938800,3.239938720703125,0.14966198801994324,0.36102136969566345,0.07635815441608429
1773200111828929000,3.255928955078125,0.10384709388017654,0.3396410644054413,0.027488935738801956
1773200111844920800,3.2719208984375,0.013439035043120384,0.24068090319633484,-0.04092797264456749
1773200111860943600,3.287943603515625,-0.0555887371301651,0.14294247329235077,-0.09957103431224823
1773200111876935000,3.303934814453125,-0.13011430203914642,0.025656340643763542,-0.1722639948129654
1773200111892924000,3.319923828125,-0.1918116807937622,-0.02321287989616394,-0.18631389737129211
1773200111908916700,3.335916748046875,-0.2376265823841095,0.04214970022439957,-0.13316862285137177
1773200111924937500,3.3519375,-0.2687807083129883,0.16249015927314758,-0.04459316283464432
1773200111940929300,3.36792919921875,-0.303600013256073,0.2742784917354584,0.07513642311096191
1773200111956921900,3.383921875,-0.31520646810531616,0.29504790902137756,0.13927727937698364
1773200111972942300,3.3999423828125,-0.28099802136421204,0.23640485107898712,0.1618792861700058
1773200111988932000,3.41593212890625,-0.23640485107898712,0.13988813757896423,0.15027284622192383
1773200112004923400,3.43192333984375,-0.20830504596233368,0.0403171069920063,0.11056660860776901
1773200112020917500,3.44791748046875,-0.18814650177955627,0.019547687843441963,0.08246681094169617
1773200112036938500,3.4639384765625,-0.1765400618314743,0.09468411654233932,0.04948008432984352
1773200112052931000,3.47993115234375,-0.16554448008537292,0.16065755486488342,0.019547687843441963
1773200112068919300,3.495919189453125,-0.13988813757896423,0.19792033731937408,-0.02932153269648552
1773200112084942800,3.51194287109375,-0.1319468915462494,0.12950342893600464,-0.0757472887635231
1773200112100933400,3.527933349609375,-0.1661553531885147,0.00427605677396059,-0.13927727937698364
1773200112116926000,3.543926025390625,-0.18875735998153687,-0.0659734457731247,-0.1514945775270462
1773200112132914200,3.5599140625,-0.18325957655906677,-0.007941247895359993,-0.07696902006864548
1773200112148938200,3.575938232421875,-0.14905111491680145,0.15821409225463867,0.04886921867728233
1773200112164929300,3.59192919921875,-0.08002334833145142,0.5094616413116455,0.2431243658065796
1773200112180920000,3.607920166015625,0.010995574295520782,0.9456194043159485,0.42271876335144043
1773200112196942600,3.623942626953125,0.10812314599752426,1.3396275043487549,0.6194173693656921
1773200112212933600,3.63993359375,0.1362229436635971,1.4245377779006958,0.7079927921295166
1773200112228924400,3.65592431640625,0.14782938361167908,1.3994922637939453,0.7128797173500061
1773200112244916500,3.67191650390625,0.13500121235847473,1.4782938957214355,0.6291912198066711
1773200112260938000,3.68793798828125,0.11850785464048386,1.5845844745635986,0.4911356568336487
1773200112276929300,3.70392919921875,0.15027284622192383,1.6420058012008667,0.40622538328170776
1773200112292921000,3.719921142578125,0.182648703455925,1.482569932937622,0.3903428912162781
1773200112308940800,3.73594091796875,0.09529497474431992,1.2870930433273315,0.36224308609962463
1773200112324932600,3.7519326171875,0.012828170321881771,1.035416603088379,0.32559117674827576
1773200112340925000,3.767925048828125,0.04214970022439957,0.816726803779602,0.28099802136421204
1773200112356946400,3.783946533203125,0.11239920556545258,0.5540547966957092,0.2223549485206604
1773200112372936200,3.799936279296875,0.15027284622192383,0.2932153046131134,0.10018189996480942
1773200112388926500,3.815926513671875,0.10323622822761536,0.03237585723400116,-0.0806342139840126
1773200112404920300,3.83192041015625,0.042760565876960754,-0.12950342893600464,-0.19914206862449646
1773200112420940300,3.847940185546875,0.0012217304902151227,-0.2791654169559479,-0.3139847218990326
1773200112436932600,3.8639326171875,0.0354301854968071,-0.39584067463874817,-0.3481931984424591
1773200112452924700,3.879924560546875,0.15393804013729095,-0.41722095012664795,-0.30970868468284607
1773200112468944600,3.895944580078125,0.2223549485206604,-0.36163222789764404,-0.23518311977386475
1773200112484938000,3.91193798828125,0.2828305959701538,-0.19914206862449646,-0.09529497474431992
1773200112500927200,3.92792724609375,0.30604347586631775,0.04214970022439957,0.01771509274840355
1773200112516920600,3.943920654296875,0.26511552929878235,0.2871066629886627,0.11545353382825851
1773200112532939500,3.959939453125,0.2119702398777008,0.35124751925468445,0.13805554807186127
1773200112548931000,3.97593115234375,0.19425514340400696,0.25473082065582275,0.10445795953273773
1773200112564922000,3.991922119140625,0.19914206862449646,0.1270599663257599,0.08124507963657379
1773200112580914200,4.0079140625,0.1368338167667389,0.02015855349600315,0.04764748737215996
1773200112596936400,4.0239365234375,0.039706241339445114,0.02382374368607998,0.07757988572120667
1773200112612926200,4.03992626953125,0.03420845419168472,-0.048258353024721146,0.1417207419872284
1773200112628917200,4.055917236328125,0.03298672288656235,-0.1459967941045761,0.16493362188339233
1773200112644939300,4.071939208984375,0.00733038317412138,-0.18081611394882202,0.1466076523065567
1773200112660932600,4.0879326171875,0.0024434609804302454,-0.12461651116609573,0.1160643994808197
1773200112676922600,4.103922607421875,0.016493361443281174,-0.029932396486401558,0.15760323405265808
1773200112700940800,4.12794091796875,0.0006108652451075613,0.029932396486401558,0.26450464129447937
1773200112716931300,4.143931396484375,-0.031154127791523933,0.00366519158706069,0.2736676335334778
1773200112732920800,4.1599208984375,-0.019547687843441963,-0.13988813757896423,0.19608774781227112
1773200112748942600,4.175942626953125,0.01710422709584236,-0.33169981837272644,0.09773843735456467
1773200112764935200,4.19193505859375,0.018325956538319588,-0.5265658497810364,0.0354301854968071
1773200112780926500,4.207926513671875,-0.02382374368607998,-0.645684540271759,0.010995574295520782
1773200112796917500,4.22391748046875,-0.06291911751031876,-0.7727445363998413,0.00427605677396059
1773200112812939300,4.239939208984375,-0.012217304669320583,-0.7324274182319641,0.018325956538319588
1773200112828930300,4.255930419921875,0.06719517707824707,-0.4966334402561188,0.09468411654233932
1773200112844921300,4.27192138671875,0.09834930300712585,-0.2577851414680481,0.23273965716362
1773200112860912400,4.287912353515625,0.11667526513338089,0.01038470957428217,0.4141666293144226
1773200112876936200,4.303936279296875,0.13377949595451355,0.17592918872833252,0.5192354321479797
1773200112892926200,4.31992626953125,0.16920967400074005,0.2480112910270691,0.5125159621238708
1773200112908919000,4.3359189453125,0.19608774781227112,0.18814650177955627,0.4001167416572571
1773200112924938800,4.351938720703125,0.21135938167572021,0.056810468435287476,0.22296582162380219
1773200112940930000,4.367929931640625,0.22968533635139465,-0.06475171446800232,0.0959058403968811
1773200112956921900,4.383921875,0.2675589919090271,-0.15760323405265808,0.01466076634824276
1773200112972944600,4.399944580078125,0.3084869384765625,-0.16310101747512817,-0.009773843921720982
1773200112988934400,4.415934326171875,0.2968805134296417,-0.12217304855585098,-0.006108652334660292
1773200113004924400,4.43192431640625,0.29138273000717163,-0.06230825558304787,-0.001832595793530345
1773200113020915500,4.44791552734375,0.2687807083129883,0.04337143152952194,0.024434609338641167
1773200113036940000,4.46393994140625,0.2590068578720093,0.11667526513338089,0.07757988572120667
1773200113052930000,4.479929931640625,0.2480112910270691,0.20341812074184418,0.1411098688840866
1773200113068919600,4.49591943359375,0.2840523421764374,0.23884831368923187,0.09346238523721695
1773200113084943400,4.511943359375,0.29016098380088806,0.17837265133857727,-0.025045474991202354
1773200113100933600,4.52793359375,0.27488934993743896,0.04337143152952194,-0.15882496535778046
1773200113116925200,4.54392529296875,0.252287358045578,-0.003054326167330146,-0.2528982162475586
1773200113132916000,4.559916015625,0.2474004179239273,0.039706241339445114,-0.22418753802776337
1773200113148936700,4.575936767578125,0.20525072515010834,0.12461651116609573,-0.1111774742603302
1773200113164928800,4.5919287109375,0.20891591906547546,0.19364428520202637,-0.03420845419168472
1773200113180920600,4.607920654296875,0.192422553896904,0.24678955972194672,-0.01710422709584236
1773200113196943400,4.623943359375,0.1765400618314743,0.2217440903186798,-0.06230825558304787
1773200113212935000,4.639934814453125,0.2021963894367218,0.1466076523065567,-0.14905111491680145
1773200113228924400,4.65592431640625,0.21013765037059784,0.036651913076639175,-0.2431243658065796
1773200113244917500,4.67191748046875,0.20402899384498596,-0.1508837193250656,-0.36163222789764404
1773200113260937700,4.687937744140625,0.18448130786418915,-0.304210901260376,-0.46547931432724
1773200113276929800,4.7039296875,0.1417207419872284,-0.40133845806121826,-0.5326744914054871
1773200113292919800,4.719919921875,0.1014036312699318,-0.3634648323059082,-0.4801400899887085
1773200113308940800,4.73594091796875,0.05192354694008827,-0.19547687470912933,-0.34147366881370544
1773200113324933400,4.751933349609375,0.02076941914856434,-0.031154127791523933,-0.22113321721553802
1773200113340924200,4.767924072265625,0.0006108652451075613,0.1111774742603302,-0.07635815441608429
1773200113356916500,4.78391650390625,-0.009773843921720982,0.15760323405265808,-0.00855211354792118
1773200113372907500,4.799907470703125,-0.01710422709584236,0.08796459436416626,-0.018936822190880775
1773200113388928500,4.815928466796875,-0.04398229718208313,-0.04948008432984352,-0.1007927656173706
1773200113404921300,4.83192138671875,-0.06536258012056351,-0.23273965716362,-0.22968533635139465
1773200113420940800,4.84794091796875,-0.05803219974040985,-0.342695415019989,-0.28955012559890747
1773200113436933400,4.863933349609375,-0.06169738993048668,-0.3280346393585205,-0.28588494658470154
1773200113452923000,4.8799228515625,-0.07208210229873657,-0.22479841113090515,-0.2370157092809677
1773200113468914400,4.89591455078125,-0.04703662544488907,-0.07208210229873657,-0.13255776464939117
1773200113484937200,4.911937255859375,-0.022602014243602753,0.014049900695681572,-0.05253441259264946
1773200113500928300,4.92792822265625,-0.0024434609804302454,0.07269296050071716,-0.007941247895359993
1773200113516920800,4.9439208984375,0.013439035043120384,0.08307767659425735,-0.012828170321881771
1773200113532940500,4.9599404296875,0.0354301854968071,0.05375614017248154,-0.05619960278272629
1773200113548932400,4.975932373046875,0.05803219974040985,0.03420845419168472,-0.1062905490398407
1773200113564921900,4.991921875,0.060475658625364304,-0.015882495790719986,-0.17531833052635193
1773200113580914000,5.007913818359375,0.0354301854968071,-0.0659734457731247,-0.22663100063800812
1773200113596937000,5.02393701171875,0.021991148591041565,-0.0708603709936142,-0.2382374405860901
1773200113612927500,5.039927490234375,0.039706241339445114,-0.018325956538319588,-0.21319197118282318
1773200113628917500,5.05591748046875,0.07024950534105301,0.05619960278272629,-0.15821409225463867
1773200113644940800,5.07194091796875,0.08674286305904388,0.1111774742603302,-0.1215621829032898
1773200113660932600,5.0879326171875,0.08552113175392151,0.11667526513338089,-0.09896016865968704
1773200113676924200,5.103924072265625,0.07757988572120667,0.09224065393209457,-0.11178833991289139
1773200113692944100,5.119944091796875,0.08429940044879913,0.11362093687057495,-0.1368338167667389
1773200113708934700,5.1359345703125,0.09285151958465576,0.10262536257505417,-0.15515977144241333
1773200113724928000,5.151927978515625,0.10690141469240189,0.08979719132184982,-0.16554448008537292
1773200113740919800,5.167919921875,0.1368338167667389,0.10201449692249298,-0.1514945775270462
1773200113756941000,5.183941162109375,0.18448130786418915,0.10812314599752426,-0.1062905490398407
1773200113772929300,5.19992919921875,0.21991148591041565,0.1062905490398407,-0.08796459436416626
1773200113788923100,5.215923095703125,0.23640485107898712,0.09468411654233932,-0.10995574295520782
1773200113804944000,5.23194384765625,0.251676470041275,0.08796459436416626,-0.13988813757896423
1773200113820935400,5.247935302734375,0.2767219543457031,0.10323622822761536,-0.17287486791610718
1773200113836928300,5.26392822265625,0.2724458873271942,0.1264491081237793,-0.17898350954055786
1773200113852917200,5.279917236328125,0.26083946228027344,0.1270599663257599,-0.15943582355976105
1773200113868939500,5.295939453125,0.26450464129447937,0.13561208546161652,-0.13255776464939117
1773200113884932000,5.31193212890625,0.29016098380088806,0.11545353382825851,-0.1007927656173706
1773200113900922400,5.32792236328125,0.29993483424186707,0.10751228034496307,-0.09957103431224823
1773200113916944600,5.343944580078125,0.313373863697052,0.11484266817569733,-0.12461651116609573
1773200113932933400,5.359933349609375,0.31154128909111023,0.14355333149433136,-0.14294247329235077
1773200113948927700,5.375927734375,0.31642818450927734,0.19303341209888458,-0.1466076523065567
1773200113964917200,5.391917236328125,0.3488040566444397,0.24068090319633484,-0.16004669666290283
1773200113980938200,5.407938232421875,0.41233405470848083,0.26572638750076294,-0.2070833146572113
1773200113996931800,5.423931884765625,0.4697553813457489,0.2119702398777008,-0.27000242471694946
1773200114012922400,5.43992236328125,0.5051855444908142,0.1319468915462494,-0.3805690407752991
1773200114028943000,5.455943115234375,0.4996877610683441,0.10506882518529892,-0.4544837474822998
1773200114044934400,5.471934326171875,0.48685958981513977,0.10384709388017654,-0.48380526900291443
1773200114060927500,5.487927490234375,0.4709770977497101,0.12522737681865692,-0.46547931432724
1773200114076918300,5.503918212890625,0.4398229718208313,0.12034045159816742,-0.41722095012664795
1773200114092938500,5.5199384765625,0.4031710624694824,0.0708603709936142,-0.3488040566444397
1773200114108930600,5.5359306640625,0.3854559659957886,-0.0012217304902151227,-0.30115658044815063
1773200114124920800,5.5519208984375,0.3543018400669098,-0.056810468435287476,-0.2822197377681732
1773200114140942800,5.56794287109375,0.3066543638706207,-0.08918632566928864,-0.2736676335334778
1773200114156935000,5.583934814453125,0.24923302233219147,-0.0959058403968811,-0.242513507604599
1773200114172924400,5.59992431640625,0.1918116807937622,-0.07269296050071716,-0.21563543379306793
1773200114188916000,5.615916015625,0.1313360333442688,-0.03176499158143997,-0.19425514340400696
1773200114204939500,5.631939453125,0.11239920556545258,-0.003054326167330146,-0.1875356286764145
1773200114220929300,5.64792919921875,0.10995574295520782,0.003054326167330146,-0.19120082259178162
1773200114236921600,5.663921630859375,0.08674286305904388,-0.013439035043120384,-0.22540926933288574
1773200114252941600,5.679941650390625,0.025656340643763542,-0.05375614017248154,-0.26572638750076294
1773200114268935200,5.69593505859375,-0.015271631069481373,-0.08185594528913498,-0.28588494658470154
1773200114284924700,5.711924560546875,-0.015271631069481373,-0.06352998316287994,-0.2834414839744568
1773200114300916700,5.727916748046875,0.015271631069481373,-0.05742133408784866,-0.24007004499435425
1773200114316938500,5.7439384765625,0.0555887371301651,-0.07330382615327835,-0.15332718193531036
1773200114332929000,5.759928955078125,0.07330382615327835,-0.10384709388017654,-0.09162978827953339
1773200114348920600,5.775920654296875,0.07269296050071716,-0.1264491081237793,-0.0403171069920063
1773200114364943400,5.791943359375,0.05375614017248154,-0.15882496535778046,-0.015271631069481373
1773200114380908500,5.807908447265625,0.02687807008624077,-0.19608774781227112,-0.001832595793530345
1773200114396900600,5.823900634765625,0.01038470957428217,-0.18875735998153687,0.00366519158706069
1773200114412890600,5.839890625,0.005497787147760391,-0.13011430203914642,0.031154127791523933
1773200114428914000,5.855913818359375,0,-0.08246681094169617,0.07513642311096191
1773200114444904200,5.871904296875,-0.02871066704392433,-0.06719517707824707,0.07513642311096191
1773200114460897300,5.887897216796875,-0.039706241339445114,-0.05375614017248154,0.03237585723400116
1773200114476918500,5.90391845703125,-0.036041051149368286,-0.08429940044879913,0.021380282938480377
1773200114492910000,5.91991015625,-0.05253441259264946,-0.13744467496871948,0.05864306539297104
1773200114508899800,5.93589990234375,-0.09957103431224823,-0.15882496535778046,0.12400564551353455
1773200114524891000,5.951890869140625,-0.13377949595451355,-0.13866640627384186,0.18387043476104736
1773200114540913700,5.96791357421875,-0.1612684279680252,-0.0959058403968811,0.2376265823841095
1773200114556906200,5.98390625,-0.17776179313659668,-0.05742133408784866,0.2528982162475586
1773200114572896800,5.999896728515625,-0.20830504596233368,-0.05192354694008827,0.2217440903186798
1773200114588915700,6.015915771484375,-0.21930062770843506,-0.0757472887635231,0.1875356286764145
1773200114604907500,6.031907470703125,-0.21930062770843506,-0.1411098688840866,0.17531833052635193
1773200114620899600,6.047899658203125,-0.24556782841682434,-0.21807889640331268,0.15577064454555511
1773200114636892200,6.06389208984375,-0.2968805134296417,-0.2626720666885376,0.1160643994808197
1773200114652913700,6.07991357421875,-0.34086281061172485,-0.24984388053417206,0.08185594528913498
1773200114668903200,6.095903076171875,-0.36590829491615295,-0.19425514340400696,0.09712757170200348
1773200114684896000,6.11189599609375,-0.3549126982688904,-0.13011430203914642,0.18448130786418915
1773200114700918500,6.12791845703125,-0.3634648323059082,-0.08368854224681854,0.3274237811565399
1773200114716908300,6.143908203125,-0.3787364661693573,-0.059864792972803116,0.4105014503002167
1773200114732900600,6.159900634765625,-0.3787364661693573,-0.06658431142568588,0.4349360466003418
1773200114748922000,6.175922119140625,-0.3591887652873993,-0.09346238523721695,0.38606682419776917
1773200114764911600,6.19191162109375,-0.31581732630729675,-0.1270599663257599,0.2718350291252136
1773200114780901600,6.207901611328125,-0.2834414839744568,-0.17531833052635193,0.18020524084568024
1773200114796895000,6.22389501953125,-0.26572638750076294,-0.24129177629947662,0.1417207419872284
1773200114812917000,6.2399169921875,-0.26145032048225403,-0.24495697021484375,0.12828169763088226
1773200114828906000,6.255906005859375,-0.22968533635139465,-0.22113321721553802,0.13316862285137177
1773200114844898000,6.27189794921875,-0.1973094791173935,-0.1875356286764145,0.1508837193250656
1773200114860889600,6.2878896484375,-0.16859880089759827,-0.152105450630188,0.15271630883216858
1773200114876912000,6.303912109375,-0.15454891324043274,-0.12522737681865692,0.12828169763088226
1773200114892901600,6.319901611328125,-0.13927727937698364,-0.09040805697441101,0.08491026610136032
1773200114908893200,6.33589306640625,-0.11423180252313614,-0.07452555745840073,0.05864306539297104
1773200114924915200,6.351915283203125,-0.08307767659425735,-0.09040805697441101,0.016493361443281174
1773200114940904700,6.36790478515625,-0.06352998316287994,-0.12461651116609573,-0.013439035043120384
1773200114956899000,6.383899169921875,-0.027488935738801956,-0.16004669666290283,-0.054367005825042725
1773200114972920600,6.399920654296875,0.009162978269159794,-0.18448130786418915,-0.10018189996480942
1773200114988910600,6.41591064453125,0.03848451003432274,-0.21135938167572021,-0.16737708449363708
1773200115004900900,6.43190087890625,0.04459316283464432,-0.23579397797584534,-0.23945917189121246
1773200115020892200,6.44789208984375,0.0354301854968071,-0.25106561183929443,-0.3182607889175415
1773200115036916500,6.46391650390625,0.024434609338641167,-0.22968533635139465,-0.3683517575263977
1773200115052906000,6.479906005859375,0.02932153269648552,-0.1973094791173935,-0.384845107793808
1773200115068896300,6.495896240234375,0.01710422709584236,-0.21502456068992615,-0.3842342495918274
1773200115084920800,6.5119208984375,-0.00855211354792118,-0.23335053026676178,-0.3903428912162781
1773200115100911900,6.527911865234375,-0.059864792972803116,-0.23151792585849762,-0.37079519033432007
1773200115116903000,6.54390283203125,-0.1215621829032898,-0.1722639948129654,-0.30115658044815063
1773200115132892700,6.559892578125,-0.1667662113904953,-0.12217304855585098,-0.18020524084568024
1773200115148914700,6.575914794921875,-0.1820378452539444,-0.06169738993048668,-0.031154127791523933
1773200115164904000,6.591904052734375,-0.16004669666290283,-0.031154127791523933,0.06352998316287994
1773200115180898800,6.60789892578125,-0.12767083942890167,-0.042760565876960754,0.10995574295520782
1773200115196919600,6.62391943359375,-0.09712757170200348,-0.042760565876960754,0.10201449692249298
1773200115212911600,6.63991162109375,-0.05375614017248154,-0.025656340643763542,0.04642575979232788
1773200115228900600,6.655900634765625,-0.00855211354792118,-0.0006108652451075613,-0.042760565876960754
1773200115244923000,6.6719228515625,0.03237585723400116,-0.001832595793530345,-0.17837265133857727
1773200115260914400,6.68791455078125,0.045204028487205505,-0.014049900695681572,-0.2871066629886627
1773200115276906000,6.703906005859375,0.04214970022439957,-0.025656340643763542,-0.3805690407752991
1773200115292895200,6.719895263671875,0.03420845419168472,-0.02015855349600315,-0.42210787534713745
1773200115308918300,6.735918212890625,0.018936822190880775,-0.013439035043120384,-0.42760565876960754
1773200115324910600,6.75191064453125,0.01466076634824276,-0.009773843921720982,-0.40194934606552124
1773200115340900400,6.767900390625,-0.001832595793530345,-0.02076941914856434,-0.3543018400669098
1773200115356893000,6.783892822265625,-0.018325956538319588,-0.04581489413976669,-0.2877175211906433
1773200115372912000,6.799912109375,-0.033597588539123535,-0.028099801391363144,-0.1618792861700058
1773200115388904400,6.815904541015625,-0.029932396486401558,0.02871066704392433,-0.0403171069920063
1773200115404895700,6.831895751953125,0,0.10995574295520782,0.060475658625364304
1773200115420918800,6.847918701171875,0.02626720629632473,0.1612684279680252,0.08674286305904388
1773200115436910000,6.86391015625,0.06108652427792549,0.18570303916931152,0.02626720629632473
1773200115452902000,6.87990185546875,0.07757988572120667,0.1362229436635971,0.019547687843441963
1773200115468921600,6.895921630859375,0.09651670604944229,0.1215621829032898,0.03420845419168472
1773200115484911000,6.9119111328125,0.13377949595451355,0.17409659922122955,0.03787364438176155
1773200115500903400,6.9279033203125,0.16982053220272064,0.24862214922904968,0.04764748737215996
1773200115516896800,6.943896728515625,0.21930062770843506,0.2724458873271942,0.05742133408784866
1773200115532917800,6.959917724609375,0.2828305959701538,0.2791654169559479,0.06414084881544113
1773200115548906500,6.975906494140625,0.31520646810531616,0.22540926933288574,0.08246681094169617
1773200115564899000,6.991899169921875,0.33047810196876526,0.21013765037059784,0.09529497474431992
1773200115580921300,7.00792138671875,0.37140607833862305,0.26633724570274353,0.10995574295520782
1773200115596912600,7.02391259765625,0.42149701714515686,0.3543018400669098,0.12950342893600464
1773200115612903200,7.039903076171875,0.4331034719944,0.45753806829452515,0.11789698898792267
1773200115628895500,7.0558955078125,0.394618958234787,0.5400048494338989,0.11239920556545258
1773200115644916200,7.071916259765625,0.3188716471195221,0.5858197808265686,0.1618792861700058
1773200115660908000,7.087907958984375,0.28527405858039856,0.6414085030555725,0.2321287989616394
1773200115676900000,7.103900146484375,0.32009339332580566,0.5522221922874451,0.23090706765651703
1773200115692920600,7.119920654296875,0.3683517575263977,0.2583959996700287,0.11911872029304504
1773200115708910800,7.135910888671875,0.3793473243713379,-0.06841690838336945,0.056810468435287476
1773200115732896800,7.159896728515625,0.3274237811565399,-0.38728857040405273,0.08124507963657379
1773200115748889900,7.175889892578125,0.304210901260376,-0.294437050819397,0.1368338167667389
1773200115764912000,7.191912109375,0.2974913716316223,-0.10567969083786011,0.14416420459747314
1773200115780903200,7.207903076171875,0.2877175211906433,0.1007927656173706,0.09285151958465576
1773200115796894700,7.223894775390625,0.24617868661880493,0.22113321721553802,-0.001832595793530345
1773200115812916700,7.239916748046875,0.13439035415649414,0.26022860407829285,-0.16737708449363708
1773200115828906800,7.25590673828125,0.021991148591041565,0.21502456068992615,-0.33719760179519653
1773200115844898000,7.27189794921875,-0.09712757170200348,0.18325957655906677,-0.5002986192703247
1773200115860889300,7.287889404296875,-0.1569923609495163,0.17776179313659668,-0.53328537940979
1773200115876913000,7.303912841796875,-0.15821409225463867,0.26511552929878235,-0.4288274049758911
1773200115892904000,7.319904052734375,-0.10018189996480942,0.3439171314239502,-0.252287358045578
1773200115908892400,7.335892333984375,0.03420845419168472,0.36163222789764404,-0.05314527451992035
1773200115924914000,7.351913818359375,0.14355333149433136,0.32009339332580566,0.08185594528913498
1773200115940906000,7.367906005859375,0.17898350954055786,0.22968533635139465,0.13500121235847473
1773200115956898300,7.383898193359375,0.20036379992961884,0.15393804013729095,0.09224065393209457
1773200115972920000,7.399920166015625,0.26145032048225403,0.09162978827953339,0.01466076634824276
1773200115988912000,7.415912109375,0.31093040108680725,0.054367005825042725,-0.06291911751031876
1773200116004903700,7.431903564453125,0.33536502718925476,-0.04886921867728233,-0.11911872029304504
1773200116020894200,7.447894287109375,0.30482175946235657,-0.1716531366109848,-0.14844025671482086
1773200116036914700,7.463914794921875,0.23090706765651703,-0.2730567753314972,-0.13927727937698364
1773200116052906200,7.47990625,0.1661553531885147,-0.2620611786842346,-0.10018189996480942
1773200116068896800,7.495896728515625,0.09407325088977814,-0.17531833052635193,-0.05803219974040985
1773200116084918800,7.511918701171875,0.02321287989616394,-0.07024950534105301,-0.029932396486401558
1773200116100910300,7.527910400390625,-0.033597588539123535,0.001832595793530345,0.02321287989616394
1773200116116902100,7.543902099609375,-0.04581489413976669,0.036041051149368286,0.056810468435287476
1773200116132893400,7.5598935546875,-0.05925392732024193,0.04214970022439957,0.01710422709584236
1773200116148914200,7.5759140625,-0.060475658625364304,0.019547687843441963,-0.10995574295520782
1773200116164904400,7.591904541015625,-0.04581489413976669,0.00366519158706069,-0.26450464129447937
1773200116180896800,7.607896728515625,-0.018325956538319588,-0.028099801391363144,-0.30482175946235657
1773200116196918000,7.62391796875,0.04092797264456749,-0.024434609338641167,-0.2669481039047241
1773200116212910300,7.639910400390625,0.08491026610136032,-0.021991148591041565,-0.21074850857257843
1773200116228902400,7.65590234375,0.11423180252313614,-0.02076941914856434,-0.16249015927314758
1773200116244891600,7.6718916015625,0.13011430203914642,-0.05192354694008827,-0.15760323405265808
1773200116260913200,7.6879130859375,0.14233160018920898,-0.08429940044879913,-0.17592918872833252
1773200116276547000,7.703547119140625,0.1514945775270462,-0.10812314599752426,-0.16920967400074005
1773200116292897800,7.719897705078125,0.15943582355976105,-0.14416420459747314,-0.10567969083786011
1773200116308919600,7.73591943359375,0.1319468915462494,-0.18936823308467865,-0.02626720629632473
1773200116324907500,7.751907470703125,0.1160643994808197,-0.19608774781227112,0
1773200116340902400,7.76790234375,0.1160643994808197,-0.19608774781227112,0
1773200116356891100,7.78389111328125,0.1160643994808197,-0.19608774781227112,0
1773200116372914000,7.799913818359375,0.1160643994808197,-0.19608774781227112,0
1773200116388331300,7.815331298828125,0.1160643994808197,-0.19608774781227112,0
1773200116404895700,7.831895751953125,0.1160643994808197,-0.19608774781227112,0
1773200116420917800,7.847917724609375,0.1160643994808197,-0.19608774781227112,0
1773200116436908500,7.863908447265625,0.1160643994808197,-0.19608774781227112,0
1773200116452899600,7.879899658203125,0.01466076634824276,-0.2932153046131134,-0.021380282938480377
1773200116468923000,7.8959228515625,0.09651670604944229,-0.2687807083129883,-0.18387043476104736
1773200116484912600,7.91191259765625,0.182648703455925,-0.2675589919090271,-0.3066543638706207
1773200116500905200,7.9279052734375,0.20463985204696655,-0.33475416898727417,-0.3121521472930908
1773200116516896000,7.94389599609375,0.16554448008537292,-0.394008070230484,-0.20341812074184418
1773200116532916500,7.95991650390625,0.10262536257505417,-0.394618958234787,-0.045204028487205505
1773200116548907500,7.975907470703125,0.02932153269648552,-0.2968805134296417,0.14355333149433136
1773200116564898600,7.991898681640625,-0.00733038317412138,-0.22357667982578278,0.3292563557624817
1773200116580890400,8.007890380859376,-0.015271631069481373,-0.16371189057826996,0.45204028487205505
1773200116596913200,8.0239130859375,0.0012217304902151227,-0.12828169763088226,0.5357288122177124
1773200116612903400,8.0399033203125,0.029932396486401558,-0.09529497474431992,0.5369505286216736
1773200116628895700,8.055895751953125,0.05619960278272629,-0.13927727937698364,0.5015203952789307
1773200116644916200,8.071916259765626,0.06475171446800232,-0.19058994948863983,0.4489859640598297
1773200116660907800,8.08790771484375,0.0861319974064827,-0.23090706765651703,0.35735616087913513
1773200116676899300,8.1038994140625,0.14233160018920898,-0.1875356286764145,0.2620611786842346
1773200116692920800,8.1199208984375,0.17898350954055786,-0.0403171069920063,0.242513507604599
1773200116708911000,8.1359111328125,0.16920967400074005,0.10567969083786011,0.3335324227809906
1773200116724903700,8.151903564453125,0.1264491081237793,0.02626720629632473,0.5259549617767334
1773200116740892400,8.167892333984375,0.07024950534105301,-0.17959438264369965,0.6505714654922485
1773200116756917500,8.18391748046875,0.00733038317412138,0.06658431142568588,0.6768386960029602
1773200116772908000,8.199907958984374,-0.13072516024112701,1.1649199724197388,0.6487388610839844
1773200116788898000,8.21589794921875,-0.24984388053417206,1.6029103994369507,0.6817256212234497
1773200116804918500,8.23191845703125,-0.28955012559890747,1.5845844745635986,0.8448266386985779
1773200116820909800,8.247909912109375,-0.06658431142568588,1.0574077367782593,0.9621127843856812
1773200116836903000,8.26390283203125,0.1258382350206375,0.7898487448692322,0.856433093547821
1773200116852892200,8.27989208984375,0.22846360504627228,0.5791002511978149,0.6243042945861816
1773200116868915000,8.2959150390625,0.3695734739303589,0.1875356286764145,0.36713001132011414
1773200116884905700,8.31190576171875,0.4092797040939331,-0.030543262138962746,0.1014036312699318
1773200116900897500,8.3278974609375,0.394008070230484,-0.15515977144241333,-0.1014036312699318
1773200116916920600,8.343920654296875,0.3799581825733185,-0.12522737681865692,-0.22602014243602753
1773200116932912000,8.359912109375,0.4612032473087311,0.02871066704392433,-0.23396138846874237
1773200116948902000,8.37590185546875,0.5247332453727722,0.09407325088977814,-0.18020524084568024
1773200116964891600,8.3918916015625,0.5595525503158569,0.08124507963657379,-0.18387043476104736
1773200116980915700,8.407915771484374,0.59803706407547,-0.029932396486401558,-0.20341812074184418
1773200116996906800,8.42390673828125,0.6340781450271606,-0.17348572611808777,-0.2076941877603531
1773200117012896800,8.439896728515626,0.6737843751907349,-0.2223549485206604,-0.2015855312347412
1773200117028920300,8.45592041015625,0.7324274182319641,-0.19608774781227112,-0.18570303916931152
1773200117044909000,8.471908935546875,0.8136724829673767,-0.18387043476104736,-0.19975294172763824
1773200117060902100,8.487902099609375,0.9077457785606384,-0.18509216606616974,-0.28466320037841797
1773200117076892400,8.503892333984375,1.0348057746887207,-0.23579397797584534,-0.4300491213798523
1773200117092915700,8.519915771484374,1.1563678979873657,-0.3988949954509735,-0.6023131608963013
1773200117108904700,8.53590478515625,1.2040153741836548,-0.6133087277412415,-0.7623597979545593
1773200117124897300,8.551897216796876,1.2015719413757324,-0.7195992469787598,-0.9095783233642578
1773200117140919800,8.567919921875,1.1759155988693237,-0.6481280326843262,-0.9944885969161987
1773200117156910600,8.58391064453125,1.1551461219787598,-0.4795292317867279,-0.9523389339447021
1773200117172900000,8.599900146484375,1.1191051006317139,-0.2577851414680481,-0.8442157506942749
1773200117188893700,8.615893798828125,1.0867292881011963,-0.036041051149368286,-0.7037167549133301
1773200117204913400,8.631913330078126,1.0586295127868652,0.15882496535778046,-0.5534439086914062
1773200117220905700,8.64790576171875,1.0280861854553223,0.29993483424186707,-0.41111230850219727
1773200117236896000,8.66389599609375,0.978606104850769,0.39645153284072876,-0.3494149148464203
1773200117252918000,8.67991796875,0.9266825914382935,0.375071257352829,-0.4141666293144226
1773200117268910600,8.69591064453125,0.8698720932006836,0.2968805134296417,-0.49235737323760986
1773200117284900000,8.711900146484375,0.8155050873756409,0.22296582162380219,-0.49846604466438293
1773200117300891100,8.72789111328125,0.7922922372817993,0.2028072625398636,-0.4612032473087311
1773200117316913000,8.743912841796876,0.7819074988365173,0.2321287989616394,-0.39645153284072876
1773200117332902700,8.759902587890625,0.7660250067710876,0.2919935882091522,-0.34513887763023376
1773200117348895500,8.7758955078125,0.7336491346359253,0.32986724376678467,-0.33169981837272644
1773200117364918500,8.79191845703125,0.6725626587867737,0.3738495409488678,-0.3982841372489929
1773200117380908000,8.807907958984375,0.6047565937042236,0.39645153284072876,-0.4703662395477295
1773200117396898000,8.82389794921875,0.49235737323760986,0.20402899384498596,-0.5467243790626526
1773200117412891600,8.8398916015625,0.4245513379573822,0.06963863968849182,-0.6316346526145935
1773200117428911900,8.855911865234376,0.485027015209198,-0.025656340643763542,-0.6517932415008545
1773200117444903400,8.8719033203125,0.5259549617767334,-0.09162978827953339,-0.6114761233329773
1773200117460894200,8.887894287109376,0.49296826124191284,-0.1258382350206375,-0.5742133259773254
1773200117476915000,8.9039150390625,0.4758640229701996,-0.09040805697441101,-0.5241223573684692
1773200117492906800,8.91990673828125,0.4642575979232788,0.033597588539123535,-0.423329621553421
1773200117508897300,8.935897216796874,0.4544837474822998,0.18875735998153687,-0.2168571650981903
1773200117524891100,8.95189111328125,0.44654250144958496,0.2877175211906433,0.07880161702632904
1773200117540911400,8.967911376953126,0.455705463886261,0.303600013256073,0.3481931984424591
1773200117556903200,8.983903076171876,0.4813618063926697,0.252287358045578,0.4795292317867279
1773200117572894200,8.999894287109376,0.4966334402561188,0.22663100063800812,0.5210680365562439
1773200117588915700,9.015915771484375,0.5119050741195679,0.24068090319633484,0.5424483418464661
1773200117604906200,9.03190625,0.5375614166259766,0.25045475363731384,0.5302310585975647
1773200117620898800,9.04789892578125,0.523511528968811,0.3640756905078888,0.4153883755207062
1773200117636920800,9.0639208984375,0.4740314185619354,0.42577308416366577,0.24007004499435425
1773200117652912600,9.07991259765625,0.40622538328170776,0.4190535545349121,0.13561208546161652
1773200117668902700,9.095902587890626,0.34697145223617554,0.3903428912162781,0.15821409225463867
1773200117684894000,9.11189404296875,0.30543261766433716,0.3219259977340698,0.22907446324825287
1773200117700915700,9.127915771484375,0.2779437005519867,0.2278527319431305,0.30970868468284607
1773200117716906800,9.14390673828125,0.2742784917354584,0.11484266817569733,0.3836233615875244
1773200117732897300,9.159897216796875,0.28527405858039856,0.036651913076639175,0.4031710624694824
1773200117748920600,9.175920654296876,0.25595253705978394,0.042760565876960754,0.3488040566444397
1773200117764911600,9.19191162109375,0.23518311977386475,0.21319197118282318,0.2528982162475586
1773200117780903200,9.207903076171876,0.22357667982578278,0.4147774875164032,0.16371189057826996
1773200117796893700,9.223893798828126,0.24556782841682434,0.5387831330299377,0.08918632566928864
1773200117812914200,9.2399140625,0.27000242471694946,0.5668829679489136,-0.015271631069481373
1773200117828905000,9.255905029296875,0.2272418737411499,0.5051855444908142,-0.09529497474431992
1773200117844899000,9.271899169921875,0.13744467496871948,0.46364670991897583,-0.05864306539297104
1773200117860918500,9.28791845703125,0.10323622822761536,0.46364670991897583,0.059864792972803116
1773200117876911000,9.3039111328125,0.08979719132184982,0.5265658497810364,0.16982053220272064
1773200117892903000,9.31990283203125,0.07208210229873657,0.607810914516449,0.252287358045578
1773200117908892400,9.335892333984376,0.009773843921720982,0.5870414972305298,0.2987131178379059
1773200117924915700,9.351915771484375,-0.0403171069920063,0.578489363193512,0.2919935882091522
1773200117940906500,9.367906494140625,-0.004886921960860491,0.5809328556060791,0.24923302233219147
1773200117956897300,9.383897216796875,0.06902777403593063,0.6004805564880371,0.1466076523065567
1773200117972919300,9.399919189453126,0.12400564551353455,0.626747727394104,0.01038470957428217
1773200117988909800,9.415909912109376,0.1814269721508026,0.5894849896430969,-0.12339477986097336
1773200118004902100,9.431902099609376,0.23518311977386475,0.45692721009254456,-0.29565876722335815
1773200118020892200,9.44789208984375,0.25473082065582275,0.2480112910270691,-0.4758640229701996
1773200118036914000,9.463913818359375,0.23396138846874237,0.08735372871160507,-0.5424483418464661
1773200118052904700,9.47990478515625,0.1411098688840866,0.20097467303276062,-0.45875978469848633
1773200118068897800,9.495897705078125,0.03726277872920036,0.5937610268592834,-0.24556782841682434
1773200118084917000,9.5119169921875,0.2125810980796814,0.7800748944282532,-0.18814650177955627
1773200118100910000,9.52791015625,0.21319197118282318,0.7263187766075134,-0.23579397797584534
1773200118116900000,9.543900146484376,0.036041051149368286,0.7434229850769043,-0.2480112910270691
1773200118132892400,9.559892333984376,-0.10751228034496307,0.8491026759147644,-0.21868975460529327
1773200118148911900,9.575911865234374,-0.17409659922122955,1.0012081861495972,-0.23396138846874237
1773200118164904700,9.59190478515625,-0.2272418737411499,1.0995573997497559,-0.3170390725135803
1773200118180895700,9.607895751953125,-0.2974913716316223,1.053742527961731,-0.4544837474822998
1773200118196918500,9.62391845703125,-0.4001167416572571,0.6866125464439392,-0.7428121566772461
1773200118212908000,9.639907958984375,-0.5962044596672058,0.1966986060142517,-1.027475357055664
1773200118228898300,9.655898193359375,-0.7623597979545593,0.22296582162380219,-1.2009611129760742
1773200118244892000,9.671891845703126,-0.8405506014823914,0.33292156457901,-1.5497651100158691
1773200118260912400,9.687912353515625,-0.6817256212234497,0.22846360504627228,-1.750128984451294
1773200118276905500,9.703905517578125,-0.44654250144958496,0.20341812074184418,-1.703092336654663
1773200118292897300,9.719897216796875,-0.19792033731937408,0.44593164324760437,-1.451415777206421
1773200118308917000,9.7359169921875,-0.07452555745840073,0.759916365146637,-0.9346238374710083
1773200118324909000,9.751908935546876,0.09529497474431992,0.8888089060783386,-0.4453207552433014
1773200118340900600,9.767900634765626,0.33047810196876526,1.1624765396118164,-0.32498031854629517
1773200118356891100,9.78389111328125,0.3738495409488678,1.3671164512634277,-0.39095374941825867
1773200118372910800,9.799910888671874,0.2370157092809677,1.6982053518295288,-0.5687155723571777
1773200118388903000,9.81590283203125,0.13072516024112701,2.0415115356445312,-0.6688974499702454
1773200118404895700,9.831895751953125,0.25106561183929443,2.3383922576904297,-0.6023131608963013
1773200118420917800,9.847917724609376,0.4331034719944,2.7152960300445557,-0.41661009192466736
1773200118436909000,9.863908935546876,0.5119050741195679,3.070819616317749,-0.2480112910270691
1773200118452898800,9.87989892578125,0.4398229718208313,3.3768630027770996,-0.21807889640331268
1773200118468890400,9.895890380859376,0.27488934993743896,3.4715471267700195,-0.24495697021484375
1773200118484912000,9.911912109375,0.03298672288656235,3.411071538925171,-0.2528982162475586
1773200118500904000,9.927904052734375,-0.1508837193250656,3.3176090717315674,-0.14477506279945374
1773200118516894500,9.94389453125,-0.40133845806121826,3.2400293350219727,-0.06902777403593063
1773200118532917200,9.959917236328126,-0.7452555894851685,3.3713653087615967,-0.16737708449363708
1773200118548908500,9.975908447265626,-1.1001683473587036,3.788586139678955,-0.5057964324951172
1773200118564899000,9.991899169921876,-1.348179578781128,4.038430213928223,-0.8393288254737854
1773200118580889600,10.0078896484375,-1.6102408170700073,4.098905563354492,-0.846659243106842
1773200118596913000,10.023912841796875,-1.9718730449676514,4.1160101890563965,-0.4746423065662384
1773200118612900900,10.03990087890625,-2.244318962097168,3.9205331802368164,-0.06230825558304787
1773200118628893200,10.05589306640625,-2.3402247428894043,3.467881917953491,0.01466076634824276
1773200118644917200,10.071917236328124,-2.2565362453460693,2.9077186584472656,-0.2718350291252136
1773200118660907500,10.087907470703126,-2.1508564949035645,2.350609540939331,-0.6908885836601257
1773200118676899600,10.103899658203124,-2.169182538986206,1.8967366218566895,-1.0073168277740479
1773200118692919600,10.11991943359375,-2.160630464553833,1.5241087675094604,-1.1227703094482422
1773200118708910000,10.13591015625,-2.107485055923462,1.2846496105194092,-1.1154398918151855
1773200118724900400,10.151900390625,-2.0592267513275146,1.0848966836929321,-1.091616153717041
1773200118740894200,10.167894287109375,-2.0592267513275146,0.9584475755691528,-1.017701506614685
1773200118756915500,10.18391552734375,-2.158186912536621,0.8521569967269897,-0.9486737251281738
1773200118772905500,10.199905517578125,-2.2424862384796143,0.7623597979545593,-0.8869763612747192
1773200118788896800,10.215896728515625,-2.194227933883667,0.7092145681381226,-0.7434229850769043
1773200118804919600,10.23191943359375,-2.2479841709136963,0.6548475623130798,-0.44776421785354614
1773200118820910000,10.24791015625,-2.4214699268341064,0.8338310718536377,-0.059864792972803116
1773200118836902700,10.263902587890625,-2.4996604919433594,0.9908234477043152,0.1264491081237793
1773200118852893400,10.2798935546875,-2.1820106506347656,0.9004153609275818,0.09346238523721695
1773200118868914000,10.295913818359375,-1.5149458646774292,0.8191702961921692,0.02076941914856434
1773200118884905500,10.311905517578126,-0.8936958312988281,0.7709119319915771,0.01038470957428217
1773200118900897000,10.32789697265625,-0.6047565937042236,0.7110471725463867,0.11484266817569733
1773200118916919300,10.343919189453125,-0.5320636034011841,0.5015203952789307,0.22479841113090515
1773200118932909600,10.35990966796875,-0.5119050741195679,0.18936823308467865,0.252287358045578
1773200118948900000,10.375900146484375,-0.4196644127368927,-0.1472185254096985,0.26450464129447937
1773200118964892000,10.391891845703125,-0.19486601650714874,-0.36163222789764404,0.2981022298336029
1773200118980915200,10.407915283203126,0.12400564551353455,-0.4740314185619354,0.35552358627319336
1773200118996905700,10.42390576171875,0.3689626157283783,-0.5345070958137512,0.43737950921058655
1773200119012895700,10.439895751953125,0.4758640229701996,-0.4593706727027893,0.5809328556060791
1773200119028919600,10.45591943359375,0.5174028873443604,-0.2883284091949463,0.759916365146637
1773200119044910600,10.47191064453125,0.5247332453727722,-0.09712757170200348,0.9181304574012756
1773200119060900000,10.487900146484375,0.5070181488990784,0.09529497474431992,1.0403034687042236
1773200119076892400,10.503892333984375,0.48747047781944275,0.27550023794174194,1.1258246898651123
1773200119092913200,10.5199130859375,0.49357911944389343,0.43676865100860596,1.156978726387024
1773200119108906200,10.53590625,0.5082398653030396,0.5210680365562439,1.13926362991333
1773200119124895500,10.5518955078125,0.5167919993400574,0.5119050741195679,1.120937705039978
1773200119140916700,10.567916748046875,0.4996877610683441,0.4508185386657715,1.1368201971054077
1773200119156907800,10.58390771484375,0.4966334402561188,0.37690386176109314,1.1832460165023804
1773200119172900900,10.59990087890625,0.5210680365562439,0.34147366881370544,1.2296717166900635
1773200119188889900,10.615889892578124,0.578489363193512,0.34208452701568604,1.2290608882904053
1773200119204913200,10.6319130859375,0.6719517707824707,0.3695734739303589,1.1801916360855103
1773200119220904000,10.647904052734376,0.7110471725463867,0.3836233615875244,1.0757336616516113
1773200119236896300,10.663896240234376,0.6536257863044739,0.3597996234893799,0.9181304574012756
1773200119252916000,10.679916015625,0.5229006409645081,0.31459560990333557,0.7141014933586121
1773200119268909600,10.69590966796875,0.3237585723400116,0.2883284091949463,0.484416127204895
1773200119284899300,10.7118994140625,0.18081611394882202,0.2938261926174164,0.30604347586631775
1773200119300889600,10.7278896484375,0.03176499158143997,0.251676470041275,0.09040805697441101
1773200119316913000,10.743912841796876,-0.08552113175392151,0.15454891324043274,-0.12278391420841217
1773200119332904000,10.759904052734376,-0.20586158335208893,0.045204028487205505,-0.33475416898727417
1773200119348895200,10.775895263671876,-0.3335324227809906,-0.06475171446800232,-0.5650503635406494
1773200119364915700,10.791915771484375,-0.4288274049758911,-0.19608774781227112,-0.7776314616203308
1773200119380908300,10.807908203125,-0.49235737323760986,-0.29138273000717163,-0.9388998746871948
1773200119396899000,10.823899169921875,-0.5259549617767334,-0.3481931984424591,-1.0231993198394775
1773200119412942600,10.839942626953125,-0.5338962078094482,-0.35124751925468445,-0.970054030418396
1773200119428935400,10.855935302734375,-0.46547931432724,-0.26083946228027344,-0.79840087890625
1773200119444928000,10.871927978515625,-0.24923302233219147,-0.1362229436635971,-0.6126978397369385
1773200119460919300,10.887919189453125,0.07452555745840073,-0.01771509274840355,-0.4495968222618103
1773200119476940300,10.903940185546874,0.33047810196876526,0.10995574295520782,-0.2541199326515198
1773200119492930300,10.919930419921876,0.4447098970413208,0.2993239760398865,-0.021380282938480377
1773200119508922600,10.935922607421874,0.45265114307403564,0.43615779280662537,0.1466076523065567
1773200119524944100,10.951944091796875,0.3995058834552765,0.4862487316131592,0.18570303916931152
1773200119540936400,10.9679365234375,0.3927863538265228,0.47708576917648315,0.14233160018920898
1773200119556926200,10.98392626953125,0.4893030524253845,0.4153883755207062,0.03420845419168472
1773200119572916500,10.99991650390625,0.5760459303855896,0.27550023794174194,-0.12278391420841217
1773200119588938000,11.01593798828125,0.5845980644226074,0.08124507963657379,-0.29565876722335815
1773200119604929800,11.0319296875,0.5210680365562439,-0.13988813757896423,-0.4331034719944
1773200119620920600,11.047920654296876,0.375071257352829,-0.35063666105270386,-0.5442809462547302
1773200119636944000,11.06394384765625,0.22602014243602753,-0.5021312236785889,-0.5119050741195679
1773200119652934700,11.0799345703125,0.13011430203914642,-0.5076290369033813,-0.2528982162475586
1773200119668926200,11.09592626953125,0.09896016865968704,-0.394008070230484,0.15943582355976105
1773200119684917500,11.11191748046875,0.10751228034496307,-0.16371189057826996,0.6328563690185547
1773200119700940500,11.1279404296875,0.1362229436635971,0.15454891324043274,1.0977247953414917
1773200119716930800,11.143930908203124,0.1612684279680252,0.4948008358478546,1.4001030921936035
1773200119732921300,11.15992138671875,0.1472185254096985,0.7238753437995911,1.4404202699661255
1773200119748942000,11.175942138671875,0.10873401165008545,0.8161159753799438,1.2877039909362793
1773200119764935000,11.191934814453125,0.05009094998240471,0.7617489695549011,0.9877691268920898
1773200119780925700,11.20792578125,-0.01466076634824276,0.5821545720100403,0.59803706407547
1773200119796917500,11.22391748046875,-0.05253441259264946,0.33536502718925476,0.22296582162380219
1773200119812939500,11.239939453125,-0.07819075137376785,0.04948008432984352,-0.08491026610136032
1773200119828931300,11.255931396484375,-0.10323622822761536,-0.2021963894367218,-0.3090978264808655
1773200119844920800,11.2719208984375,-0.13500121235847473,-0.3695734739303589,-0.4294382631778717
1773200119860942000,11.287942138671875,-0.18387043476104736,-0.46242499351501465,-0.45692721009254456
1773200119876934100,11.30393408203125,-0.2321287989616394,-0.48197266459465027,-0.4105014503002167
1773200119892926500,11.319926513671875,-0.2968805134296417,-0.4098905920982361,-0.28038713335990906
1773200119908914200,11.3359140625,-0.3433062732219696,-0.3170390725135803,-0.13011430203914642
1773200119924938200,11.351938232421874,-0.38179078698158264,-0.24495697021484375,0.005497787147760391
1773200119940929800,11.3679296875,-0.40622538328170776,-0.19975294172763824,0.13927727937698364
1773200119956922400,11.38392236328125,-0.4086688458919525,-0.13866640627384186,0.32009339332580566
1773200119972942800,11.39994287109375,-0.3646865487098694,-0.03848451003432274,0.5461135506629944
1773200119988935200,11.41593505859375,-0.2730567753314972,0.04153883829712868,0.7422012686729431
1773200120004925200,11.43192529296875,-0.1368338167667389,0.10262536257505417,0.8381071090698242
1773200120020915700,11.447915771484375,-0.04337143152952194,0.16310101747512817,0.8093964457511902
1773200120036939500,11.463939453125,-0.005497787147760391,0.11789698898792267,0.6640105247497559
1773200120052928800,11.4799287109375,-0.03481931984424591,-0.036651913076639175,0.4196644127368927
1773200120068919600,11.49591943359375,-0.14416420459747314,-0.16859880089759827,0.1875356286764145
1773200120084942000,11.511942138671875,-0.2565633952617645,-0.22663100063800812,0.03237585723400116
1773200120100931800,11.527931884765625,-0.2871066629886627,-0.19364428520202637,-0.036651913076639175
1773200120116925700,11.54392578125,-0.19792033731937408,-0.06291911751031876,-0.018325956538319588
1773200120132914000,11.559913818359375,-0.0006108652451075613,0.15027284622192383,0.04214970022439957
1773200120148935200,11.57593505859375,0.22540926933288574,0.3292563557624817,0.09957103431224823
1773200120164929300,11.59192919921875,0.40133845806121826,0.394008070230484,0.14844025671482086
1773200120180920800,11.6079208984375,0.4966334402561188,0.3799581825733185,0.19120082259178162
1773200120196942600,11.623942626953125,0.5369505286216736,0.3274237811565399,0.18875735998153687
1773200120212932000,11.63993212890625,0.5277875661849976,0.2431243658065796,0.11239920556545258
1773200120228923600,11.655923583984375,0.48380526900291443,0.16371189057826996,-0.03848451003432274
1773200120244914000,11.671913818359375,0.43676865100860596,0.08429940044879913,-0.24556782841682434
1773200120260936400,11.6879365234375,0.37201693654060364,-0.005497787147760391,-0.4917465150356293
1773200120276929500,11.703929443359375,0.2669481039047241,-0.11972958594560623,-0.7012733221054077
1773200120292919800,11.719919921875,0.13805554807186127,-0.21319197118282318,-0.8051204085350037
1773200120308940800,11.73594091796875,0.01710422709584236,-0.2565633952617645,-0.7874053120613098
1773200120324932400,11.751932373046875,-0.07391469180583954,-0.24373523890972137,-0.6664539575576782
1773200120340923400,11.76792333984375,-0.13988813757896423,-0.16859880089759827,-0.4612032473087311
1773200120356915000,11.7839150390625,-0.19486601650714874,-0.08918632566928864,-0.17531833052635193
1773200120372937000,11.79993701171875,-0.22602014243602753,-0.013439035043120384,0.1765400618314743
1773200120388928300,11.81592822265625,-0.18936823308467865,0.1459967941045761,0.5552765130996704
1773200120404919000,11.8319189453125,-0.04703662544488907,0.3597996234893799,0.8808676600456238
1773200120420937500,11.8479375,0.16310101747512817,0.513126790523529,1.0421360731124878
1773200120436932400,11.863932373046875,0.2968805134296417,0.5400048494338989,1.0128145217895508
1773200120452922400,11.87992236328125,0.29138273000717163,0.45692721009254456,0.8741481900215149
1773200120468916000,11.895916015625,0.16798794269561768,0.323147714138031,0.720820963382721
1773200120484936400,11.9119365234375,0.013439035043120384,0.2070833146572113,0.5919284224510193
1773200120500927700,11.927927734375,-0.09957103431224823,0.13439035415649414,0.48380526900291443
1773200120516918500,11.94391845703125,-0.1472185254096985,0.0959058403968811,0.3805690407752991
1773200120532941800,11.95994189453125,-0.19608774781227112,0.11667526513338089,0.3072652220726013
1773200120548931800,11.975931884765625,-0.28466320037841797,0.15515977144241333,0.28588494658470154
1773200120564924000,11.991923828125,-0.4153883755207062,0.17959438264369965,0.32009339332580566
1773200120580912000,12.007912109375,-0.5271766781806946,0.22418753802776337,0.42638394236564636
1773200120596936200,12.023936279296874,-0.5662720799446106,0.29504790902137756,0.5711590051651001
1773200120612928800,12.0399287109375,-0.5351179838180542,0.375071257352829,0.6908885836601257
1773200120628919000,12.0559189453125,-0.4593706727027893,0.4807509481906891,0.7293730974197388
1773200120644938500,12.0719384765625,-0.41599923372268677,0.5467243790626526,0.6768386960029602
1773200120660930800,12.087930908203125,-0.42760565876960754,0.5455026626586914,0.5564982295036316
1773200120676924000,12.103923828125,-0.46303585171699524,0.5308418869972229,0.4355469346046448
1773200120692943600,12.119943603515624,-0.4703662395477295,0.46731191873550415,0.30482175946235657
1773200120708935700,12.135935791015624,-0.43188172578811646,0.2773328125476837,0.12339477986097336
1773200120724927200,12.15192724609375,-0.33169981837272644,0.08918632566928864,-0.07513642311096191
1773200120740917200,12.167917236328124,-0.20830504596233368,0.039706241339445114,-0.24373523890972137
1773200120756939500,12.183939453125,-0.12828169763088226,0.0006108652451075613,-0.4398229718208313
1773200120772930800,12.199930908203125,-0.11362093687057495,-0.02687807008624077,-0.6530149579048157
1773200120788921600,12.215921630859375,-0.10873401165008545,-0.005497787147760391,-0.7953465580940247
1773200120804943400,12.231943359375,-0.07391469180583954,-0.012217304669320583,-0.8924741148948669
1773200120820936200,12.247936279296875,0.018325956538319588,-0.042760565876960754,-0.9010262489318848
1773200120836926000,12.263926025390624,0.2272418737411499,-0.04886921867728233,-0.7776314616203308
1773200120852918800,12.279918701171875,0.5778785347938538,-0.01038470957428217,-0.5455026626586914
1773200120868938200,12.295938232421875,0.9578366875648499,0.0555887371301651,-0.2871066629886627
1773200120884929800,12.3119296875,1.1740829944610596,0.09834930300712585,-0.06719517707824707
1773200120900922000,12.327922119140625,1.2217304706573486,0.14416420459747314,0.1258382350206375
1773200120916913000,12.343912841796875,1.1441506147384644,0.24068090319633484,0.2828305959701538
1773200120932935400,12.359935302734375,0.9969320893287659,0.33108896017074585,0.3481931984424591
1773200120948925200,12.37592529296875,0.8362745046615601,0.3591887652873993,0.32681289315223694
1773200120964919000,12.3919189453125,0.7049384713172913,0.2816088795661926,0.2541199326515198
1773200120980939000,12.40793896484375,0.6096435189247131,0.13439035415649414,0.17592918872833252
1773200120996930300,12.423930419921875,0.46242499351501465,-0.028099801391363144,0.13439035415649414
1773200121012919600,12.43991943359375,0.2565633952617645,-0.09468411654233932,0.20341812074184418
1773200121028942300,12.4559423828125,0.06475171446800232,0.04092797264456749,0.45631635189056396
1773200121044932600,12.4719326171875,-0.03176499158143997,0.2535090744495392,0.8093964457511902
1773200121060924400,12.48792431640625,-0.06963863968849182,0.4337143301963806,1.1007791757583618
1773200121076917000,12.5039169921875,-0.10506882518529892,0.5564982295036316,1.2901474237442017
1773200121092938000,12.51993798828125,-0.12461651116609573,0.6444628238677979,1.3866641521453857
1773200121108928800,12.5359287109375,-0.10445795953273773,0.6786713004112244,1.359175205230713
1773200121124920300,12.55192041015625,-0.08918632566928864,0.626747727394104,1.1924089193344116
1773200121140943600,12.567943603515625,-0.13011430203914642,0.46853363513946533,0.9358455538749695
1773200121156933600,12.58393359375,-0.20036379992961884,0.26633724570274353,0.6621779203414917
1773200121172924000,12.599923828125,-0.2021963894367218,0.11728613078594208,0.4789183437824249
1773200121188917000,12.6159169921875,-0.1612684279680252,0.07024950534105301,0.4245513379573822
1773200121204939500,12.631939453125,-0.16065755486488342,0.05375614017248154,0.4550946056842804
1773200121220928800,12.6479287109375,-0.1966986060142517,0.05192354694008827,0.5161811113357544
1773200121236920800,12.6639208984375,-0.23518311977386475,0.0708603709936142,0.5864306092262268
1773200121252942600,12.679942626953125,-0.2376265823841095,0.0861319974064827,0.6389650702476501
1773200121268934700,12.6959345703125,-0.24129177629947662,0.10445795953273773,0.6548475623130798
1773200121284924400,12.71192431640625,-0.22540926933288574,0.12828169763088226,0.6664539575576782
1773200121300916500,12.72791650390625,-0.1875356286764145,0.1258382350206375,0.6615670323371887
1773200121316938500,12.7439384765625,-0.1459967941045761,0.11423180252313614,0.6627888083457947
1773200121332930000,12.759929931640626,-0.08002334833145142,0.08857546001672745,0.66584312915802
1773200121348920300,12.77592041015625,-0.0012217304902151227,0.04214970022439957,0.618195652961731
1773200121364941300,12.79194140625,0.09407325088977814,-0.04153883829712868,0.5314527750015259
1773200121380932400,12.807932373046874,0.16432274878025055,-0.16432274878025055,0.41599923372268677
1773200121396925000,12.823925048828125,0.1472185254096985,-0.2474004179239273,0.29565876722335815
1773200121412944400,12.8399443359375,0.07757988572120667,-0.1966986060142517,0.22602014243602753
1773200121428937000,12.85593701171875,0.00733038317412138,-0.039095375686883926,0.18387043476104736
1773200121444929300,12.87192919921875,0.006108652334660292,0.1563815027475357,0.1319468915462494
1773200121460919300,12.887919189453125,0.10506882518529892,0.3182607889175415,0.07757988572120667
1773200121476941600,12.903941650390625,0.24617868661880493,0.403781920671463,0.033597588539123535
1773200121492932400,12.919932373046874,0.41111230850219727,0.4349360466003418,0.05253441259264946
1773200121508923100,12.935923095703124,0.5778785347938538,0.4056145250797272,0.1514945775270462
1773200121524914700,12.951914794921874,0.7104362845420837,0.34758231043815613,0.2773328125476837
1773200121540938000,12.96793798828125,0.7409795522689819,0.27061331272125244,0.3194825351238251
1773200121556928500,12.983928466796876,0.6664539575576782,0.22846360504627228,0.2632829248905182
1773200121572918800,12.999918701171875,0.5308418869972229,0.20036379992961884,0.13255776464939117
1773200121588942000,13.015942138671875,0.4105014503002167,0.18997909128665924,-0.033597588539123535
1773200121604932000,13.03193212890625,0.2632829248905182,0.19425514340400696,-0.17898350954055786
1773200121620923000,13.0479228515625,0.0861319974064827,0.17470745742321014,-0.2889392673969269
1773200121636915500,13.06391552734375,-0.08368854224681854,0.12767083942890167,-0.3481931984424591
1773200121652935700,13.079935791015625,-0.182648703455925,0.09834930300712585,-0.32559117674827576
1773200121668927000,13.095927001953125,-0.23640485107898712,0.08857546001672745,-0.17592918872833252
1773200121684917200,13.111917236328125,-0.29626965522766113,0.07330382615327835,0.0806342139840126
1773200121700941300,13.12794140625,-0.39156460762023926,0.07330382615327835,0.43676865100860596
1773200121716931800,13.143931884765625,-0.4306600093841553,0.21930062770843506,0.7904596328735352
1773200121732921000,13.159921142578124,-0.24923302233219147,0.43799036741256714,1.018923282623291
1773200121748944100,13.175944091796875,0.05375614017248154,0.6041457056999207,1.0580185651779175
1773200121764936700,13.191936767578126,0.18387043476104736,0.6298020482063293,0.9474520087242126
1773200121780926500,13.207926513671875,0.09773843735456467,0.5723807215690613,0.8014551997184753
1773200121796917500,13.22391748046875,-0.05864306539297104,0.4691445231437683,0.6823364496231079
1773200121812939500,13.239939453125,-0.17287486791610718,0.3738495409488678,0.6017022728919983
1773200121828930300,13.255930419921874,-0.21930062770843506,0.33108896017074585,0.5595525503158569
1773200121844921600,13.271921630859374,-0.2370157092809677,0.34086281061172485,0.5326744914054871
1773200121860914000,13.287913818359375,-0.2816088795661926,0.35124751925468445,0.5186246037483215
1773200121876934000,13.303933837890625,-0.3677408695220947,0.3274237811565399,0.5302310585975647
1773200121892926000,13.319926025390625,-0.4337143301963806,0.3549126982688904,0.6236934065818787
1773200121908917500,13.33591748046875,-0.45326200127601624,0.42088615894317627,0.7764097452163696
1773200121924939000,13.35193896484375,-0.41172316670417786,0.494189977645874,0.9040805697441101
1773200121940930300,13.367930419921874,-0.33536502718925476,0.5955936312675476,0.9865473508834839
1773200121956921900,13.383921875,-0.252287358045578,0.7055493593215942,0.9743300676345825
1773200121972941600,13.399941650390625,-0.16554448008537292,0.750142514705658,0.8350527882575989
1773200121988936000,13.41593603515625,-0.09712757170200348,0.7238753437995911,0.6010913848876953
1773200122004924700,13.431924560546875,-0.03298672288656235,0.6481280326843262,0.3439171314239502
1773200122020917000,13.4479169921875,0.021380282938480377,0.5192354321479797,0.05803219974040985
1773200122036939800,13.463939697265625,0.05742133408784866,0.3286454975605011,-0.24190263450145721
1773200122052929500,13.479929443359374,0.07696902006864548,0.14477506279945374,-0.4990769028663635
1773200122068921000,13.495921142578124,0.08368854224681854,-0.04886921867728233,-0.7018841505050659
1773200122084944600,13.511944580078126,0.11239920556545258,-0.22052235901355743,-0.7947356700897217
1773200122100934100,13.52793408203125,0.24434609711170197,-0.30543261766433716,-0.7098253965377808
1773200122116925000,13.543925048828125,0.5155702829360962,-0.2822197377681732,-0.4911356568336487
1773200122132915500,13.55991552734375,0.8436049222946167,-0.20891591906547546,-0.22602014243602753
1773200122148938200,13.575938232421874,1.0531316995620728,-0.10201449692249298,0.030543262138962746
1773200122164930800,13.591930908203125,1.1398745775222778,0.019547687843441963,0.2577851414680481
1773200122180920800,13.6079208984375,1.1276572942733765,0.15332718193531036,0.43737950921058655
1773200122196943000,13.623943115234376,1.0512990951538086,0.2987131178379059,0.5174028873443604
1773200122212933400,13.639933349609375,0.979827880859375,0.3842342495918274,0.5119050741195679
1773200122228926000,13.655926025390626,0.8967501521110535,0.32498031854629517,0.4178318381309509
1773200122244917000,13.6719169921875,0.7751879692077637,0.16920967400074005,0.31581732630729675
1773200122260938200,13.687938232421875,0.6334672570228577,0.018325956538319588,0.28099802136421204
1773200122276928500,13.703928466796874,0.46181413531303406,-0.039706241339445114,0.3139847218990326
1773200122292921000,13.719921142578125,0.3286454975605011,-0.00855211354792118,0.4300491213798523
1773200122308941800,13.73594189453125,0.2938261926174164,0.08368854224681854,0.675006091594696
1773200122324932900,13.751932861328125,0.3127630054950714,0.28038713335990906,0.9608910083770752
1773200122340925700,13.76792578125,0.3225368559360504,0.4709770977497101,1.094059705734253
1773200122356917500,13.78391748046875,0.294437050819397,0.5626068711280823,1.0421360731124878
1773200122372937700,13.799937744140625,0.192422553896904,0.5302310585975647,0.8289441466331482
1773200122388928000,13.815927978515624,0.08002334833145142,0.413555771112442,0.5516113042831421
1773200122404919000,13.8319189453125,-0.04886921867728233,0.25595253705978394,0.27611109614372253
1773200122420941600,13.847941650390625,-0.1563815027475357,0.08307767659425735,0.05742133408784866
1773200122436931000,13.86393115234375,-0.23457226157188416,-0.03176499158143997,-0.08857546001672745
1773200122452924000,13.879923828125,-0.2871066629886627,-0.10873401165008545,-0.15332718193531036
1773200122468946000,13.89594580078125,-0.35185837745666504,-0.14905111491680145,-0.10751228034496307
1773200122484938000,13.91193798828125,-0.4349360466003418,-0.14416420459747314,0.030543262138962746
1773200122500929500,13.927929443359375,-0.5015203952789307,-0.13255776464939117,0.1875356286764145
1773200122516920800,13.9439208984375,-0.5516113042831421,-0.14049901068210602,0.3194825351238251
1773200122532941300,13.95994140625,-0.5797111392021179,-0.12217304855585098,0.4141666293144226
1773200122548931600,13.975931640625,-0.588263213634491,-0.0806342139840126,0.49296826124191284
1773200122564923100,13.991923095703125,-0.578489363193512,-0.03237585723400116,0.5155702829360962
1773200122580913200,14.0079130859375,-0.5766568183898926,-0.025045474991202354,0.4954117238521576
1773200122596938200,14.023938232421875,-0.5705481171607971,-0.02076941914856434,0.4911356568336487
1773200122612927500,14.039927490234374,-0.5613851547241211,-0.05803219974040985,0.4612032473087311
1773200122628920300,14.05592041015625,-0.5192354321479797,-0.08429940044879913,0.45814892649650574
1773200122644940500,14.0719404296875,-0.4599815309047699,-0.0861319974064827,0.48380526900291443
1773200122660932400,14.087932373046876,-0.3677408695220947,-0.05925392732024193,0.5027421116828918
1773200122676924000,14.103923828125,-0.30970868468284607,-0.04703662544488907,0.4911356568336487
1773200122692945400,14.1199453125,-0.32986724376678467,-0.10873401165008545,0.41722095012664795
1773200122708934100,14.13593408203125,-0.3988949954509735,-0.1258382350206375,0.32986724376678467
1773200122724928800,14.1519287109375,-0.40194934606552124,-0.07208210229873657,0.23335053026676178
1773200122740917800,14.167917724609374,-0.28588494658470154,0.04581489413976669,0.10323622822761536
1773200122756940500,14.1839404296875,-0.09712757170200348,0.11423180252313614,-0.015882495790719986
1773200122772932400,14.199932373046876,0.08674286305904388,0.06719517707824707,-0.03726277872920036
1773200122788923400,14.21592333984375,0.2638937830924988,-0.0006108652451075613,0.08491026610136032
1773200122804945400,14.2319453125,0.49724429845809937,-0.01038470957428217,0.2730567753314972
1773200122820935400,14.247935302734374,0.7354817390441895,0.001832595793530345,0.3927863538265228
1773200122836926700,14.2639267578125,0.8436049222946167,0.039706241339445114,0.3830125033855438
1773200122852917500,14.27991748046875,0.8185594081878662,0.08979719132184982,0.23029619455337524
1773200122868940500,14.2959404296875,0.7360926270484924,0.10873401165008545,-0.022602014243602753
1773200122884930300,14.311930419921875,0.6340781450271606,0.05497787147760391,-0.3237585723400116
1773200122900923600,14.327923583984376,0.5149593949317932,-0.0354301854968071,-0.5876523852348328
1773200122916945700,14.343945556640625,0.4141666293144226,-0.1270599663257599,-0.7654141783714294
1773200122932936200,14.359936279296875,0.32986724376678467,-0.2015855312347412,-0.8381071090698242
1773200122948926200,14.37592626953125,0.23151792585849762,-0.2541199326515198,-0.7965682744979858
1773200122964918800,14.391918701171875,0.12828169763088226,-0.25106561183929443,-0.6316346526145935
1773200122980940300,14.407940185546876,0.048258353024721146,-0.17470745742321014,-0.37140607833862305
1773200122996932600,14.4239326171875,0.0354301854968071,-0.059864792972803116,-0.04398229718208313
1773200123012923000,14.4399228515625,0.1014036312699318,0.08002334833145142,0.3341432809829712
1773200123028944000,14.45594384765625,0.19853121042251587,0.2064724564552307,0.7373143434524536
1773200123044936000,14.47193603515625,0.26083946228027344,0.2828305959701538,1.073290228843689
1773200123060926700,14.4879267578125,0.28099802136421204,0.3604104816913605,1.3103059530258179
1773200123076917200,14.503917236328125,0.2981022298336029,0.42271876335144043,1.4172073602676392
1773200123092939300,14.519939208984376,0.3225368559360504,0.43615779280662537,1.3640620708465576
1773200123108929300,14.53592919921875,0.3494149148464203,0.40072759985923767,1.1410962343215942
1773200123124921900,14.551921875,0.3243694305419922,0.3078760802745819,0.8124507665634155
1773200123140942600,14.567942626953124,0.21441370248794556,0.182648703455925,0.4495968222618103
1773200123156935200,14.58393505859375,0.042760565876960754,0.060475658625364304,0.10873401165008545
1773200123172926700,14.5999267578125,-0.11484266817569733,-0.039095375686883926,-0.15821409225463867
1773200123188917000,14.6159169921875,-0.2070833146572113,-0.10812314599752426,-0.31031954288482666
1773200123204940000,14.63193994140625,-0.24923302233219147,-0.12278391420841217,-0.32620203495025635
1773200123220931600,14.647931640625,-0.2632829248905182,-0.0659734457731247,-0.22540926933288574
1773200123236921000,14.663921142578126,-0.3029891550540924,0.012828170321881771,-0.06536258012056351
1773200123252942300,14.6799423828125,-0.36163222789764404,0.09468411654233932,0.09468411654233932
1773200123268933400,14.695933349609374,-0.41661009192466736,0.17592918872833252,0.2223549485206604
1773200123284924700,14.711924560546874,-0.455705463886261,0.2535090744495392,0.304210901260376
1773200123300916200,14.727916259765625,-0.45875978469848633,0.32498031854629517,0.32131510972976685
1773200123316939300,14.743939208984376,-0.4398229718208313,0.37629300355911255,0.2626720666885376
1773200123332929300,14.75992919921875,-0.44287729263305664,0.3836233615875244,0.13255776464939117
1773200123348920600,14.775920654296876,-0.47830748558044434,0.34086281061172485,-0.021991148591041565
1773200123364941800,14.79194189453125,-0.5198463201522827,0.30543261766433716,-0.1215621829032898
1773200123380934100,14.80793408203125,-0.5393940210342407,0.2822197377681732,-0.17837265133857727
1773200123396925400,14.823925537109375,-0.5308418869972229,0.251676470041275,-0.18631389737129211
1773200123420942300,14.8479423828125,-0.44837507605552673,0.2968805134296417,-0.15332718193531036
1773200123436934100,14.86393408203125,-0.3237585723400116,0.35063666105270386,-0.12339477986097336
1773200123452924700,14.879924560546876,-0.20830504596233368,0.3842342495918274,-0.11056660860776901
1773200123468914400,14.89591455078125,-0.14905111491680145,0.36163222789764404,-0.1472185254096985
1773200123484938800,14.911938720703125,-0.12095131725072861,0.29077184200286865,-0.19853121042251587
1773200123500928500,14.927928466796875,-0.10445795953273773,0.24129177629947662,-0.24617868661880493
1773200123516920300,14.94392041015625,-0.06902777403593063,0.21380282938480377,-0.2724458873271942
1773200123532941300,14.95994140625,-0.03420845419168472,0.2015855312347412,-0.2883284091949463
1773200123548935200,14.97593505859375,-0.016493361443281174,0.19120082259178162,-0.29993483424186707
1773200123564925400,14.991925537109376,-0.01710422709584236,0.18325957655906677,-0.2932153046131134
1773200123580944600,15.007944580078124,0.003054326167330146,0.15760323405265808,-0.2773328125476837
1773200123596938500,15.0239384765625,0.021991148591041565,0.15332718193531036,-0.24434609711170197
1773200123612928500,15.039928466796875,0.04092797264456749,0.1667662113904953,-0.2125810980796814
1773200123628921000,15.055921142578125,0.06291911751031876,0.15515977144241333,-0.23273965716362
1773200123644940800,15.07194091796875,0.08979719132184982,0.11301007121801376,-0.2773328125476837
1773200123660933600,15.08793359375,0.1258382350206375,0.05742133408784866,-0.3384193480014801
1773200123676924400,15.10392431640625,0.17104226350784302,-0.02932153269648552,-0.4098905920982361
1773200123692946000,15.11994580078125,0.22968533635139465,-0.14477506279945374,-0.5198463201522827
1773200123708936200,15.135936279296875,0.2773328125476837,-0.30482175946235657,-0.6695083379745483
1773200123724929500,15.151929443359375,0.2889392673969269,-0.4086688458919525,-0.7415903806686401
1773200123740919300,15.167919189453125,0.2669481039047241,-0.4043927788734436,-0.6591235995292664
1773200123756942000,15.183942138671876,0.22663100063800812,-0.33658674359321594,-0.4605923891067505
1773200123772931600,15.199931640625,0.24373523890972137,-0.2223549485206604,-0.152105450630188
1773200123788923400,15.21592333984375,0.3243694305419922,-0.13377949595451355,0.25106561183929443
1773200123804944000,15.23194384765625,0.394008070230484,-0.12889257073402405,0.6291912198066711
1773200123820934700,15.2479345703125,0.3927863538265228,-0.11545353382825851,0.9034696817398071
1773200123836928300,15.26392822265625,0.3445279896259308,-0.04764748737215996,1.084285855293274
1773200123852919600,15.27991943359375,0.2834414839744568,0.06169738993048668,1.1948524713516235
1773200123868942000,15.295942138671874,0.2535090744495392,0.23335053026676178,1.246165156364441
1773200123884931300,15.311931396484376,0.24923302233219147,0.3640756905078888,1.186300277709961
1773200123900924000,15.327923828125,0.2217440903186798,0.38179078698158264,1.056796908378601
1773200123916915000,15.3439150390625,0.1814269721508026,0.3121521472930908,0.8998045325279236
1773200123932937200,15.359937255859375,0.13377949595451355,0.192422553896904,0.6939429044723511
1773200123948926000,15.375926025390624,0.10751228034496307,0.051312681287527084,0.46853363513946533
1773200123964918300,15.391918212890625,0.0757472887635231,-0.056810468435287476,0.29077184200286865
1773200123980939000,15.40793896484375,0.04459316283464432,-0.10873401165008545,0.18325957655906677
1773200123996931800,15.423931884765626,0.01771509274840355,-0.11423180252313614,0.11545353382825851
1773200124012921900,15.439921875,-0.0012217304902151227,-0.06841690838336945,0.0555887371301651
1773200124028943000,15.455943115234374,-0.045204028487205505,0.0024434609804302454,-0.012217304669320583
1773200124044935400,15.471935302734375,-0.11484266817569733,0.059864792972803116,-0.08185594528913498
1773200124060926500,15.487926513671875,-0.16737708449363708,0.10751228034496307,-0.13377949595451355
1773200124076919600,15.50391943359375,-0.18387043476104736,0.11911872029304504,-0.1508837193250656
1773200124092938500,15.5199384765625,-0.2064724564552307,0.08002334833145142,-0.15515977144241333
1773200124108931000,15.53593115234375,-0.24556782841682434,0.025045474991202354,-0.14782938361167908
1773200124124922000,15.551922119140626,-0.28527405858039856,-0.02626720629632473,-0.11728613078594208
1773200124140945000,15.56794482421875,-0.31642818450927734,-0.04214970022439957,-0.06108652427792549
1773200124156935400,15.583935302734375,-0.33047810196876526,-0.010995574295520782,0.014049900695681572
1773200124172926200,15.59992626953125,-0.32009339332580566,0.021991148591041565,0.05925392732024193
1773200124188918800,15.615918701171875,-0.2968805134296417,0.036651913076639175,0.060475658625364304
1773200124204939500,15.631939453125,-0.2785545587539673,-0.001832595793530345,0.015271631069481373
1773200124220931000,15.64793115234375,-0.26145032048225403,-0.08796459436416626,-0.06169738993048668
1773200124236922600,15.663922607421876,-0.24190263450145721,-0.2028072625398636,-0.1472185254096985
1773200124252942300,15.6799423828125,-0.21380282938480377,-0.2791654169559479,-0.20036379992961884
1773200124268935200,15.69593505859375,-0.16859880089759827,-0.33475416898727417,-0.23640485107898712
1773200124284926200,15.71192626953125,-0.11301007121801376,-0.3903428912162781,-0.3072652220726013
1773200124300918300,15.727918212890625,-0.07024950534105301,-0.4440990388393402,-0.3952298164367676
1773200124316939800,15.743939697265626,-0.06902777403593063,-0.5064072608947754,-0.45692721009254456
1773200124332930300,15.759930419921876,-0.1270599663257599,-0.5455026626586914,-0.45753806829452515
1773200124348921000,15.775921142578126,-0.17837265133857727,-0.484416127204895,-0.3585779070854187
1773200124364941800,15.79194189453125,-0.14294247329235077,-0.3090978264808655,-0.18936823308467865
1773200124380934100,15.80793408203125,0.018325956538319588,-0.12889257073402405,-0.025656340643763542
1773200124396927200,15.82392724609375,0.23884831368923187,-0.05619960278272629,0.11667526513338089
1773200124412946000,15.83994580078125,0.46853363513946533,-0.0806342139840126,0.24862214922904968
1773200124428939000,15.85593896484375,0.6114761233329773,-0.13500121235847473,0.35124751925468445
1773200124444931000,15.87193115234375,0.6811147332191467,-0.14416420459747314,0.41172316670417786
1773200124460919300,15.887919189453125,0.7415903806686401,-0.09773843735456467,0.40133845806121826
1773200124476943400,15.903943359375,0.7806857824325562,-0.0708603709936142,0.2932153046131134
1773200124492933400,15.919933349609375,0.7806857824325562,-0.07941248267889023,0.11667526513338089
1773200124508924000,15.935923828125,0.7397578358650208,-0.1007927656173706,-0.08857546001672745
1773200124524946200,15.9519462890625,0.6450737118721008,-0.13072516024112701,-0.30604347586631775
1773200124540938800,15.967938720703126,0.5155702829360962,-0.1722639948129654,-0.4789183437824249
1773200124556929500,15.983929443359376,0.3640756905078888,-0.20341812074184418,-0.5803219676017761
1773200124572920000,15.999920166015626,0.2070833146572113,-0.20952677726745605,-0.6316346526145935
1773200124588943000,16.015943115234375,0.051312681287527084,-0.1918116807937622,-0.6218608021736145
1773200124604932000,16.03193212890625,-0.08552113175392151,-0.1362229436635971,-0.5155702829360962
1773200124620924700,16.047924560546875,-0.17837265133857727,-0.08124507963657379,-0.3280346393585205
1773200124636947500,16.063947509765626,-0.22357667982578278,-0.051312681287527084,-0.06719517707824707
1773200124652938200,16.079938232421874,-0.22907446324825287,-0.03420845419168472,0.28038713335990906
1773200124668928800,16.0959287109375,-0.2125810980796814,-0.02626720629632473,0.626747727394104
1773200124684919600,16.11191943359375,-0.21930062770843506,-0.018325956538319588,0.8362745046615601
1773200124700941600,16.127941650390625,-0.25106561183929443,-0.027488935738801956,0.9046914577484131
1773200124716934000,16.143933837890625,-0.3078760802745819,0.019547687843441963,0.8943067193031311
1773200124732925700,16.15992578125,-0.40133845806121826,0.09834930300712585,0.817948579788208
1773200124748945200,16.175945068359376,-0.5393940210342407,0.17043140530586243,0.6866125464439392
1773200124764938000,16.19193798828125,-0.7000515460968018,0.24495697021484375,0.5296201705932617
1773200124780928000,16.207927978515624,-0.8497135639190674,0.31642818450927734,0.3543018400669098
1773200124796920300,16.22392041015625,-0.9382890462875366,0.33047810196876526,0.20891591906547546
1773200124812943400,16.239943359375,-1.0073168277740479,0.3549126982688904,0.16249015927314758
1773200124828933000,16.25593310546875,-1.053742527961731,0.4098905920982361,0.22846360504627228
1773200124844923000,16.2719228515625,-1.0726794004440308,0.4746423065662384,0.3543018400669098
1773200124860914400,16.28791455078125,-1.0531316995620728,0.5546656250953674,0.4948008358478546
1773200124876938800,16.303938720703126,-0.969443142414093,0.656680166721344,0.6157521605491638
1773200124892927700,16.319927734375,-0.8307767510414124,0.7586946487426758,0.6890559792518616
1773200124908918300,16.335918212890626,-0.675006091594696,0.8197811841964722,0.6731734871864319
1773200124924939800,16.351939697265625,-0.5296201705932617,0.8393288254737854,0.6010913848876953
1773200124940931300,16.367931396484376,-0.42210787534713745,0.856433093547821,0.5076290369033813
1773200124956924200,16.383924072265625,-0.3628539443016052,0.789237916469574,0.37690386176109314
1773200124972944100,16.399944091796876,-0.323147714138031,0.6908885836601257,0.24556782841682434
1773200124988937700,16.415937744140624,-0.2669481039047241,0.5907067060470581,0.15027284622192383
1773200125004926200,16.43192626953125,-0.20830504596233368,0.5155702829360962,0.07391469180583954
1773200125020917800,16.447917724609376,-0.14905111491680145,0.46303585171699524,0.021380282938480377
1773200125036940500,16.4639404296875,-0.07391469180583954,0.44226643443107605,0.012217304669320583
1773200125052932000,16.47993212890625,0.04153883829712868,0.4337143301963806,0.0403171069920063
1773200125068922600,16.495922607421875,0.16432274878025055,0.4453207552433014,0.12217304855585098
1773200125084946400,16.511946533203126,0.2816088795661926,0.47342056035995483,0.2278527319431305
1773200125100936200,16.527936279296874,0.38728857040405273,0.5186246037483215,0.2877175211906433
1773200125116928000,16.543927978515626,0.45326200127601624,0.4966334402561188,0.2620611786842346
1773200125132918300,16.559918212890626,0.5192354321479797,0.39156460762023926,0.20525072515010834
1773200125148938800,16.575938720703125,0.588263213634491,0.21013765037059784,0.12461651116609573
1773200125164932000,16.59193212890625,0.6212499737739563,0.048258353024721146,0.051312681287527084
1773200125180923000,16.6079228515625,0.6126978397369385,-0.07635815441608429,-0.03298672288656235
1773200125196946000,16.62394580078125,0.5626068711280823,-0.12889257073402405,-0.05925392732024193
1773200125212934100,16.63993408203125,0.5106833577156067,-0.0555887371301651,0.06536258012056351
1773200125228927700,16.655927734375,0.5558874011039734,0.10201449692249298,0.31093040108680725
1773200125244919600,16.67191943359375,0.7605272531509399,0.21013765037059784,0.5900958180427551
1773200125260941300,16.68794140625,0.9908234477043152,0.2773328125476837,0.8900306820869446
1773200125276931600,16.703931640625,1.1087204217910767,0.3787364661693573,1.1753047704696655
1773200125292921600,16.719921630859375,1.0873401165008545,0.4440990388393402,1.3255776166915894
1773200125308946200,16.7359462890625,1.0329731702804565,0.3952298164367676,1.320690631866455
1773200125324934700,16.7519345703125,0.9266825914382935,0.33536502718925476,1.2223412990570068
1773200125340926500,16.767926513671874,0.7843509912490845,0.31154128909111023,1.1105530261993408
1773200125356949800,16.78394970703125,0.636521577835083,0.3390302062034607,1.0690141916275024
1773200125372939000,16.79993896484375,0.49235737323760986,0.43127086758613586,1.0739010572433472
1773200125388929800,16.8159296875,0.4147774875164032,0.5149593949317932,1.1233811378479004
1773200125404922000,16.831922119140625,0.3677408695220947,0.5858197808265686,1.2803735733032227
1773200125420944400,16.8479443359375,0.31581732630729675,0.6805039048194885,1.453248381614685
1773200125436936200,16.863936279296876,0.3219259977340698,0.8032878041267395,1.5161675214767456
1773200125452926000,16.879926025390624,0.36163222789764404,0.8442157506942749,1.4104878902435303
1773200125468909800,16.895909912109374,0.3842342495918274,0.7922922372817993,1.1520918607711792
1773200125484903400,16.9119033203125,0.34208452701568604,0.7012733221054077,0.8503243923187256
1773200125500893000,16.927892822265626,0.2583959996700287,0.5845980644226074,0.5485569834709167
1773200125516885000,16.943885009765626,0.16982053220272064,0.46181413531303406,0.2669481039047241
1773200125532906000,16.959906005859374,0.08918632566928864,0.3701843321323395,0.04153883829712868
1773200125548897300,16.975897216796874,0.04398229718208313,0.3292563557624817,-0.10934487730264664
1773200125564889000,16.99188916015625,0.021991148591041565,0.304210901260376,-0.21013765037059784
1773200125580879400,17.00787939453125,-0.00733038317412138,0.24068090319633484,-0.2932153046131134
1773200125596903400,17.0239033203125,-0.06352998316287994,0.16982053220272064,-0.35063666105270386
1773200125612894200,17.039894287109377,-0.10812314599752426,0.08735372871160507,-0.3579670190811157
1773200125628883700,17.0558837890625,-0.15577064454555511,0.00733038317412138,-0.3066543638706207
1773200125644907000,17.071906982421876,-0.21991148591041565,-0.08124507963657379,-0.18081611394882202
1773200125660898000,17.08789794921875,-0.29138273000717163,-0.12767083942890167,0.03726277872920036
1773200125676890000,17.10389013671875,-0.3646865487098694,-0.01160643994808197,0.33658674359321594
1773200125692910600,17.11991064453125,-0.41661009192466736,0.1667662113904953,0.5931501388549805
1773200125708902100,17.135902099609375,-0.4404338300228119,0.2828305959701538,0.7220427393913269
1773200125724893000,17.151892822265626,-0.43127086758613586,0.3597996234893799,0.778853178024292
1773200125740884000,17.167884033203126,-0.4202753007411957,0.3604104816913605,0.7959573864936829
1773200125756905700,17.18390576171875,-0.38117989897727966,0.2932153046131134,0.797789990901947
1773200125772897000,17.19989697265625,-0.33536502718925476,0.17837265133857727,0.789237916469574
1773200125788888800,17.215888916015626,-0.2828305959701538,0.08002334833145142,0.759916365146637
1773200125804908800,17.23190869140625,-0.19853121042251587,0.04948008432984352,0.7141014933586121
1773200125820900000,17.247900146484376,-0.07147123664617538,0.03298672288656235,0.637132465839386
1773200125836893400,17.2638935546875,0.08246681094169617,0.031154127791523933,0.5241223573684692
1773200125852884500,17.279884521484377,0.20097467303276062,0.009773843921720982,0.3842342495918274
1773200125868904200,17.295904296875,0.26511552929878235,-0.09529497474431992,0.23518311977386475
1773200125884896300,17.311896240234375,0.24617868661880493,-0.2376265823841095,0.09834930300712585
1773200125900886000,17.327885986328123,0.12461651116609573,-0.34147366881370544,0.05803219974040985
1773200125916910000,17.34391015625,0.05619960278272629,-0.2816088795661926,0.16065755486488342
1773200125932900600,17.359900634765626,0.18631389737129211,-0.0354301854968071,0.3738495409488678
1773200125948892200,17.37589208984375,0.4703662395477295,0.25534167885780334,0.5650503635406494
1773200125964883200,17.39188330078125,0.7189884185791016,0.3891211748123169,0.7177666425704956
1773200125980902400,17.40790234375,0.8332201838493347,0.38606682419776917,0.8484918475151062
1773200125996895200,17.423895263671874,0.856433093547821,0.29565876722335815,0.9388998746871948
1773200126012887600,17.439887451171874,0.7849618196487427,0.22418753802776337,1.009149432182312
1773200126028908800,17.45590869140625,0.665232241153717,0.2626720666885376,1.0250319242477417
1773200126044899800,17.47189990234375,0.5412266254425049,0.37262779474258423,0.9450085163116455
1773200126060892200,17.48789208984375,0.44776421785354614,0.48747047781944275,0.7641924023628235
1773200126076881200,17.503881103515624,0.3494149148464203,0.5552765130996704,0.5070181488990784
1773200126092903000,17.51990283203125,0.25045475363731384,0.5070181488990784,0.2125810980796814
1773200126108896500,17.535896484375,0.09834930300712585,0.34758231043815613,-0.04581489413976669
1773200126124886300,17.55188623046875,-0.07635815441608429,0.15577064454555511,-0.15332718193531036
1773200126140905700,17.56790576171875,-0.2119702398777008,0.06536258012056351,-0.06902777403593063
1773200126156898600,17.583898681640626,-0.29138273000717163,0.027488935738801956,0.13988813757896423
1773200126172891400,17.599891357421875,-0.3182607889175415,0.04581489413976669,0.45204028487205505
1773200126188881000,17.615880859375,-0.30970868468284607,0.13866640627384186,0.8356636762619019
1773200126204903000,17.63190283203125,-0.29077184200286865,0.2968805134296417,1.197906732559204
1773200126220895200,17.647895263671874,-0.2681698501110077,0.44776421785354614,1.4495831727981567
1773200126236886800,17.66388671875,-0.22540926933288574,0.5650503635406494,1.5522085428237915
1773200126252907500,17.679907470703125,-0.16310101747512817,0.6145304441452026,1.4953981637954712
1773200126268897500,17.6958974609375,-0.1258382350206375,0.5974262356758118,1.2999212741851807
1773200126284889300,17.711889404296876,-0.13255776464939117,0.5400048494338989,1.0500773191452026
1773200126300880600,17.727880615234376,-0.18631389737129211,0.4447098970413208,0.7996225953102112
1773200126316902700,17.743902587890624,-0.2620611786842346,0.3127630054950714,0.5540547966957092
1773200126332893400,17.7598935546875,-0.30604347586631775,0.2015855312347412,0.35552358627319336
1773200126348886000,17.775885986328124,-0.32620203495025635,0.16371189057826996,0.2376265823841095
1773200126364908000,17.791907958984375,-0.3170390725135803,0.19792033731937408,0.1973094791173935
1773200126380899300,17.8078994140625,-0.26572638750076294,0.2565633952617645,0.17837265133857727
1773200126396889300,17.823889404296875,-0.18936823308467865,0.31031954288482666,0.1918116807937622
1773200126412910000,17.83991015625,-0.12217304855585098,0.3701843321323395,0.22602014243602753
1773200126428901600,17.855901611328125,-0.05803219974040985,0.4129449129104614,0.27611109614372253
1773200126444893200,17.87189306640625,-0.004886921960860491,0.4294382631778717,0.33597588539123535
1773200126460884500,17.887884521484374,0.01710422709584236,0.4245513379573822,0.3732386529445648
1773200126476906500,17.903906494140625,0.01160643994808197,0.3988949954509735,0.35185837745666504
1773200126492898300,17.919898193359376,-0.02626720629632473,0.36102136969566345,0.28466320037841797
1773200126508887000,17.935886962890624,-0.0555887371301651,0.33169981837272644,0.23029619455337524
1773200126524909800,17.951909912109375,-0.05864306539297104,0.34086281061172485,0.20463985204696655
1773200126540903200,17.967903076171876,-0.039095375686883926,0.35124751925468445,0.1820378452539444
1773200126556894000,17.98389404296875,-0.007941247895359993,0.37201693654060364,0.1612684279680252
1773200126572882200,17.999882080078127,0.02932153269648552,0.40622538328170776,0.14966198801994324
1773200126588905200,18.0159052734375,0.06536258012056351,0.40133845806121826,0.1264491081237793
1773200126604897500,18.0318974609375,0.09407325088977814,0.394618958234787,0.10262536257505417
1773200126620889300,18.047889404296875,0.11911872029304504,0.3585779070854187,0.03848451003432274
1773200126636910800,18.063910888671874,0.13377949595451355,0.31520646810531616,-0.054367005825042725
1773200126652900900,18.07990087890625,0.15515977144241333,0.252287358045578,-0.17592918872833252
1773200126668890400,18.095890380859377,0.16920967400074005,0.19303341209888458,-0.2926044464111328
1773200126684882700,18.111882568359373,0.182648703455925,0.15577064454555511,-0.35674530267715454
1773200126700906200,18.12790625,0.25534167885780334,0.07147123664617538,-0.4343251883983612
1773200126716895200,18.143895263671876,0.28466320037841797,-0.1007927656173706,-0.5839871764183044
1773200126732888600,18.159888671875,0.2590068578720093,-0.24862214922904968,-0.6976081132888794
1773200126748909000,18.175908935546875,0.2376265823841095,-0.2871066629886627,-0.6768386960029602
1773200126764901000,18.191901123046875,0.27122417092323303,-0.23396138846874237,-0.5057964324951172
1773200126780891100,18.20789111328125,0.3878994286060333,-0.1411098688840866,-0.2565633952617645
1773200126796883700,18.2238837890625,0.5216789245605469,-0.042760565876960754,0.03420845419168472
1773200126812905500,18.239905517578126,0.6053674817085266,0.025045474991202354,0.2742784917354584
1773200126828896800,18.255896728515626,0.578489363193512,0.006108652334660292,0.3842342495918274
1773200126844887000,18.271886962890626,0.43127086758613586,-0.04948008432984352,0.37568211555480957
1773200126860909600,18.28790966796875,0.2590068578720093,-0.06475171446800232,0.3335324227809906
1773200126876900400,18.303900390625,0.11301007121801376,-0.045204028487205505,0.28649580478668213
1773200126892892000,18.319891845703125,-0.010995574295520782,0.03237585723400116,0.22846360504627228
1773200126908882000,18.3358818359375,-0.10262536257505417,0.13377949595451355,0.13316862285137177
1773200126924905500,18.351905517578125,-0.16065755486488342,0.251676470041275,0.01466076634824276
1773200126940895500,18.3678955078125,-0.13805554807186127,0.3139847218990326,-0.10873401165008545
1773200126956886000,18.383885986328124,-0.06902777403593063,0.24984388053417206,-0.2571742534637451
1773200126972908300,18.399908203125,-0.030543262138962746,0.06536258012056351,-0.45204028487205505
1773200126988899800,18.41589990234375,-0.03298672288656235,-0.09529497474431992,-0.607810914516449
1773200127004891100,18.43189111328125,-0.012217304669320583,-0.18997909128665924,-0.6823364496231079
1773200127020881400,18.44788134765625,0.018325956538319588,-0.21502456068992615,-0.6963863968849182
1773200127036904400,18.463904541015626,0.021991148591041565,-0.19975294172763824,-0.6933320760726929
1773200127052895500,18.4798955078125,0.015271631069481373,-0.19303341209888458,-0.7238753437995911
1773200127068884700,18.495884765625,0.014049900695681572,-0.2015855312347412,-0.799011766910553
1773200127084907500,18.511907470703125,0.015882495790719986,-0.2376265823841095,-0.9083566069602966
1773200127100897300,18.527897216796877,0.00733038317412138,-0.2785545587539673,-1.0268645286560059
1773200127116890600,18.543890625,0.00366519158706069,-0.3274237811565399,-1.1246029138565063
1773200127132880600,18.559880615234373,-0.00733038317412138,-0.38728857040405273,-1.2015719413757324
1773200127148902400,18.57590234375,-0.02871066704392433,-0.4489859640598297,-1.2321151494979858
1773200127164894500,18.59189453125,-0.045204028487205505,-0.484416127204895,-1.217454433441162
1773200127180886500,18.607886474609376,-0.08002334833145142,-0.5112941861152649,-1.1820242404937744
1773200127196907000,18.623906982421875,-0.1313360333442688,-0.5241223573684692,-1.130711555480957
1773200127212897800,18.639897705078123,-0.20341812074184418,-0.5112941861152649,-1.0378600358963013
1773200127228889000,18.65588916015625,-0.3029891550540924,-0.4612032473087311,-0.911410927772522
1773200127244880000,18.6718798828125,-0.39584067463874817,-0.43188172578811646,-0.826500654220581
1773200127260902700,18.687902587890626,-0.4709770977497101,-0.46670106053352356,-0.8509352803230286
1773200127276894000,18.70389404296875,-0.5241223573684692,-0.5143485069274902,-0.9071348905563354
1773200127292883000,18.719883056640626,-0.5827654600143433,-0.5619960427284241,-0.9486737251281738
1773200127308907000,18.735906982421874,-0.6579018831253052,-0.5894849896430969,-0.9639453291893005
1773200127324896800,18.751896728515625,-0.7226535677909851,-0.5974262356758118,-0.9456194043159485
1773200127340887000,18.767886962890625,-0.7422012686729431,-0.598647952079773,-0.9608910083770752
1773200127356881200,18.783881103515625,-0.7269296646118164,-0.59803706407547,-1.009149432182312
1773200127372902000,18.79990185546875,-0.685390830039978,-0.6023131608963013,-1.084285855293274
1773200127388894000,18.81589404296875,-0.6780604124069214,-0.6536257863044739,-1.1985175609588623
1773200127404882700,18.831882568359376,-0.675006091594696,-0.7373143434524536,-1.3127493858337402
1773200127420906200,18.84790625,-0.6579018831253052,-0.7996225953102112,-1.4294246435165405
1773200127436896500,18.863896484375,-0.6120869517326355,-0.8753699064254761,-1.5442672967910767
1773200127452887300,18.87988720703125,-0.5760459303855896,-0.9712757468223572,-1.6548339128494263
1773200127468879000,18.895879150390623,-0.5729916095733643,-1.0659598112106323,-1.7415767908096313
1773200127484902100,18.911902099609375,-0.5736024379730225,-1.1722503900527954,-1.777006983757019
1773200127500891400,18.927891357421874,-0.5876523852348328,-1.2205088138580322,-1.7165313959121704
1773200127516884200,18.94388427734375,-0.5577199459075928,-1.1722503900527954,-1.5289957523345947
1773200127532906500,18.959906494140625,-0.3701843321323395,-1.0128145217895508,-1.2510520219802856
1773200127548895500,18.9758955078125,-0.07513642311096191,-0.8234463334083557,-1.0036516189575195
1773200127564888000,18.99188818359375,0.1569923609495163,-0.7556403279304504,-0.8765916228294373
1773200127580910800,19.007910888671876,0.19486601650714874,-0.8283332586288452,-0.8497135639190674
1773200127596901600,19.023901611328125,0.14233160018920898,-0.9242390990257263,-0.816726803779602
1773200127612892400,19.039892333984376,0.08368854224681854,-0.9712757468223572,-0.788016140460968
1773200127628883700,19.0558837890625,0.04092797264456749,-0.902247965335846,-0.7922922372817993
1773200127644903200,19.071903076171875,0.00733038317412138,-0.7422012686729431,-0.8790351152420044
1773200127660895200,19.087895263671875,0.009162978269159794,-0.5968153476715088,-1.0812314748764038
1773200127676887300,19.10388720703125,0.060475658625364304,-0.6053674817085266,-1.338405728340149
1773200127692909600,19.11990966796875,0.13255776464939117,-0.7232644557952881,-1.4477506875991821
1773200127708901000,19.135901123046875,0.17409659922122955,-0.8258898258209229,-1.3451253175735474
1773200127724891100,19.15189111328125,0.21624629199504852,-0.9132435321807861,-1.141707181930542
1773200127740883200,19.16788330078125,0.24556782841682434,-0.9346238374710083,-0.9755517840385437
1773200127756904000,19.183904052734373,0.24556782841682434,-0.8979719281196594,-0.921184778213501
1773200127772895000,19.19989501953125,0.17348572611808777,-0.8387179970741272,-0.979216992855072
1773200127788887600,19.215887451171874,0.05803219974040985,-0.7678576111793518,-1.103833556175232
1773200127804877300,19.231877197265625,-0.10506882518529892,-0.685390830039978,-1.224173903465271
1773200127820900000,19.247900146484376,-0.26633724570274353,-0.5613851547241211,-1.3048081398010254
1773200127836890400,19.263890380859376,-0.3640756905078888,-0.46792277693748474,-1.361007809638977
1773200127852881200,19.279881103515624,-0.39706242084503174,-0.4642575979232788,-1.4868459701538086
1773200127868904200,19.295904296875,-0.39767327904701233,-0.5522221922874451,-1.6994271278381348
1773200127884895200,19.311895263671875,-0.39706242084503174,-0.6664539575576782,-1.8991800546646118
1773200127900887600,19.327887451171875,-0.4086688458919525,-0.7367035150527954,-1.9743164777755737
1773200127916908800,19.34390869140625,-0.40194934606552124,-0.7580837607383728,-1.940108060836792
1773200127932898800,19.35989892578125,-0.37140607833862305,-0.7660250067710876,-1.8771889209747314
1773200127948890000,19.37589013671875,-0.35185837745666504,-0.7574729323387146,-1.8234328031539917
1773200127964881700,19.391881591796874,-0.3543018400669098,-0.7562511563301086,-1.7818939685821533
1773200127980901000,19.407901123046877,-0.394008070230484,-0.759916365146637,-1.7324138879776
1773200127996895200,19.423895263671874,-0.4740314185619354,-0.7709119319915771,-1.6688838005065918
1773200128012884700,19.439884765625,-0.5455026626586914,-0.8032878041267395,-1.6462818384170532
1773200128028906200,19.45590625,-0.6053674817085266,-0.8717046976089478,-1.7061465978622437
1773200128044898800,19.47189892578125,-0.6688974499702454,-0.9462302923202515,-1.7983872890472412
1773200128060889000,19.48788916015625,-0.6951646208763123,-0.9578366875648499,-1.832595705986023
1773200128076881000,19.503880859375,-0.6798930168151855,-0.9126327037811279,-1.8099937438964844
1773200128092903700,19.519903564453124,-0.6090326309204102,-0.8289441466331482,-1.7611244916915894
1773200128108895000,19.53589501953125,-0.5198463201522827,-0.7483099102973938,-1.7256942987442017
1773200128124884700,19.551884765625,-0.45204028487205505,-0.6933320760726929,-1.6920967102050781
1773200128140907800,19.56790771484375,-0.4251621961593628,-0.656680166721344,-1.6279559135437012
1773200128156897500,19.5838974609375,-0.413555771112442,-0.6163630485534668,-1.519832730293274
1773200128172888600,19.599888671875,-0.4001167416572571,-0.5766568183898926,-1.3933836221694946
1773200128188879600,19.615879638671874,-0.39095374941825867,-0.5693264007568359,-1.2736539840698242
1773200128204902100,19.631902099609373,-0.37079519033432007,-0.5748242139816284,-1.1331549882888794
1773200128220893000,19.647892822265625,-0.32131510972976685,-0.5699372887611389,-0.959669291973114
1773200128236885200,19.66388525390625,-0.2119702398777008,-0.5516113042831421,-0.7751879692077637
1773200128252905200,19.6799052734375,-0.1111774742603302,-0.5106833577156067,-0.6517932415008545
1773200128268896300,19.695896240234376,-0.06108652427792549,-0.48747047781944275,-0.5968153476715088
1773200128284889600,19.7118896484375,-0.06291911751031876,-0.46242499351501465,-0.5955936312675476
1773200128300879000,19.727879150390624,-0.09040805697441101,-0.4495968222618103,-0.6230825781822205
1773200128316902000,19.74390185546875,-0.13744467496871948,-0.46242499351501465,-0.6572909951210022
1773200128332891600,19.7598916015625,-0.17898350954055786,-0.49846604466438293,-0.6707300543785095
1773200128348884700,19.775884765625,-0.19303341209888458,-0.5308418869972229,-0.617584764957428
1773200128364905500,19.791905517578126,-0.15515977144241333,-0.5241223573684692,-0.5363397002220154
1773200128380897800,19.807897705078126,-0.09712757170200348,-0.4709770977497101,-0.45753806829452515
1773200128396887000,19.823886962890626,-0.04214970022439957,-0.4080579876899719,-0.3903428912162781
1773200128412909600,19.83990966796875,0,-0.3549126982688904,-0.33719760179519653
1773200128428900900,19.85590087890625,0.006108652334660292,-0.33047810196876526,-0.30115658044815063
1773200128444891400,19.871891357421877,-0.009773843921720982,-0.34758231043815613,-0.3084869384765625
1773200128460884500,19.887884521484374,-0.03726277872920036,-0.36529740691185,-0.33536502718925476
1773200128476905000,19.903905029296876,-0.051312681287527084,-0.3732386529445648,-0.36590829491615295
1773200128492894200,19.919894287109376,-0.07147123664617538,-0.3695734739303589,-0.4080579876899719
1773200128508887000,19.935886962890624,-0.1160643994808197,-0.3585779070854187,-0.4447098970413208
1773200128524909300,19.951909423828123,-0.18020524084568024,-0.34147366881370544,-0.4691445231437683
1773200128540899600,19.967899658203127,-0.22113321721553802,-0.34758231043815613,-0.4966334402561188
1773200128556892200,19.98389208984375,-0.2474004179239273,-0.3604104816913605,-0.5088507533073425
1773200128572883500,19.999883544921875,-0.28466320037841797,-0.37751471996307373,-0.5186246037483215
1773200128588905500,20.015905517578126,-0.3139847218990326,-0.35735616087913513,-0.5100724697113037
1773200128604896000,20.03189599609375,-0.3072652220726013,-0.31581732630729675,-0.4746423065662384
1773200128620886300,20.04788623046875,-0.2968805134296417,-0.27611109614372253,-0.43799036741256714
1773200128636909600,20.06390966796875,-0.27550023794174194,-0.2590068578720093,-0.4001167416572571
1773200128652899000,20.079899169921877,-0.21563543379306793,-0.2742784917354584,-0.375071257352829
1773200128668892200,20.09589208984375,-0.17348572611808777,-0.3127630054950714,-0.3591887652873993
1773200128684883000,20.111883056640625,-0.15027284622192383,-0.34025195240974426,-0.3494149148464203
1773200128700903700,20.127903564453124,-0.11972958594560623,-0.3494149148464203,-0.3488040566444397
1773200128716896300,20.143896240234376,-0.08185594528913498,-0.35124751925468445,-0.3701843321323395
1773200128732885800,20.1598857421875,-0.06475171446800232,-0.34697145223617554,-0.39767327904701233
1773200128748908500,20.175908447265623,-0.05314527451992035,-0.34147366881370544,-0.4239404797554016
1773200128764899000,20.191899169921875,-0.04948008432984352,-0.3274237811565399,-0.45142942667007446
