time,seconds_elapsed,z,y,x
1773200109048355800,0.47535595703125,0.26633724570274353,0.2376265823841095,0.192422553896904
1773200109064919300,0.491919189453125,0.26633724570274353,0.2376265823841095,0.192422553896904
1773200109080926000,0.507926025390625,0.26633724570274353,0.2376265823841095,0.192422553896904
1773200109096935000,0.523934814453125,0.26633724570274353,0.2376265823841095,0.192422553896904
1773200109112932000,0.53993212890625,0.26633724570274353,0.2376265823841095,0.192422553896904
1773200109128915000,0.5559150390625,0.26633724570274353,0.2376265823841095,0.192422553896904
1773200109144937500,0.5719375,0.0757472887635231,0.1014036312699318,-0.014049900695681572
1773200109160929300,0.58792919921875,0.07757988572120667,0.16859880089759827,-0.03787364438176155
1773200109208933600,0.63593359375,0.05619960278272629,0.2687807083129883,-0.010995574295520782
1773200109224924200,0.651924072265625,-0.01771509274840355,0.16493362188339233,0.00733038317412138
1773200109240916000,0.667916015625,-0.09040805697441101,0.07024950534105301,0.015271631069481373
1773200109256938000,0.68393798828125,-0.12339477986097336,-0.00427605677396059,-0.0012217304902151227
1773200109272929000,0.699928955078125,-0.1264491081237793,0.039706241339445114,-0.04092797264456749
1773200109288921300,0.71592138671875,-0.11301007121801376,0.12217304855585098,-0.0507018156349659
1773200109304909300,0.731909423828125,-0.11728613078594208,0.2064724564552307,-0.04153883829712868
1773200109320933400,0.747933349609375,-0.14538592100143433,0.24434609711170197,-0.021991148591041565
1773200109336924700,0.763924560546875,-0.16249015927314758,0.22052235901355743,-0.00855211354792118
1773200109352915000,0.7799150390625,-0.14294247329235077,0.15577064454555511,-0.036041051149368286
1773200109368935400,0.795935302734375,-0.1417207419872284,0.13927727937698364,-0.06475171446800232
1773200109384927200,0.81192724609375,-0.14294247329235077,0.14233160018920898,-0.10690141469240189
1773200109400920800,0.8279208984375,-0.14416420459747314,0.15454891324043274,-0.12889257073402405
1773200109416942800,0.84394287109375,-0.1466076523065567,0.182648703455925,-0.12217304855585098
1773200109432931000,0.85993115234375,-0.1472185254096985,0.19303341209888458,-0.08552113175392151
1773200109448922600,0.875922607421875,-0.12767083942890167,0.18997909128665924,-0.07208210229873657
1773200109464913400,0.891913330078125,-0.1062905490398407,0.1563815027475357,-0.07880161702632904
1773200109480938200,0.907938232421875,-0.10506882518529892,0.09040805697441101,-0.11728613078594208
1773200109496926700,0.9239267578125,-0.10934487730264664,0.051312681287527084,-0.14049901068210602
1773200109512918000,0.93991796875,-0.10995574295520782,0.07269296050071716,-0.10812314599752426
1773200109528912000,0.955911865234375,-0.11423180252313614,0.08857546001672745,-0.07330382615327835
1773200109544931800,0.971931884765625,-0.11301007121801376,0.12095131725072861,-0.036041051149368286
1773200109560923100,0.987923095703125,-0.09896016865968704,0.13927727937698364,-0.01466076634824276
1773200109576916200,1.003916259765625,-0.08124507963657379,0.152105450630188,-0.04153883829712868
1773200109592934400,1.019934326171875,-0.07024950534105301,0.10201449692249298,-0.1111774742603302
1773200109608926200,1.03592626953125,-0.07452555745840073,0.03481931984424591,-0.1417207419872284
1773200109624918800,1.051918701171875,-0.08918632566928864,-0.02932153269648552,-0.1722639948129654
1773200109640939000,1.06793896484375,-0.11911872029304504,-0.01038470957428217,-0.18387043476104736
1773200109656931600,1.083931640625,-0.16371189057826996,0.06414084881544113,-0.17348572611808777
1773200109672921300,1.09992138671875,-0.16249015927314758,0.11911872029304504,-0.15515977144241333
1773200109688915500,1.11591552734375,-0.14905111491680145,0.08429940044879913,-0.14782938361167908
1773200109704934100,1.13193408203125,-0.14538592100143433,0.025656340643763542,-0.13072516024112701
1773200109720925400,1.147925537109375,-0.15882496535778046,-0.0354301854968071,-0.08674286305904388
1773200109736918500,1.16391845703125,-0.16737708449363708,-0.04703662544488907,-0.03848451003432274
1773200109752938200,1.179938232421875,-0.1722639948129654,-0.0659734457731247,0.015271631069481373
1773200109768929500,1.195929443359375,-0.17470745742321014,-0.07330382615327835,0.024434609338641167
1773200109784922400,1.21192236328125,-0.17776179313659668,-0.07024950534105301,0.02076941914856434
1773200109800912000,1.227911865234375,-0.18020524084568024,-0.056810468435287476,0.018936822190880775
1773200109816936400,1.2439365234375,-0.18570303916931152,-0.07208210229873657,0.024434609338641167
1773200109832925400,1.259925537109375,-0.15515977144241333,-0.051312681287527084,0.03298672288656235
1773200109848916200,1.275916259765625,-0.1215621829032898,-0.0403171069920063,0.039095375686883926
1773200109864938800,1.291938720703125,-0.09773843735456467,-0.0555887371301651,0.039706241339445114
1773200109880931800,1.307931884765625,-0.1014036312699318,-0.08491026610136032,0.031154127791523933
1773200109896923000,1.3239228515625,-0.10506882518529892,-0.09957103431224823,0.009162978269159794
1773200109912911600,1.33991162109375,-0.07147123664617538,-0.09468411654233932,-0.03298672288656235
1773200109928936400,1.3559365234375,-0.04948008432984352,-0.09834930300712585,-0.04153883829712868
1773200109944924700,1.371924560546875,-0.05192354694008827,-0.11850785464048386,-0.00855211354792118
1773200109960917500,1.38791748046875,-0.07941248267889023,-0.12767083942890167,0.04398229718208313
1773200109976940800,1.40394091796875,-0.10934487730264664,-0.13011430203914642,0.1111774742603302
1773200109992928800,1.4199287109375,-0.14355333149433136,-0.09285151958465576,0.15393804013729095
1773200110008920300,1.43592041015625,-0.1612684279680252,-0.05497787147760391,0.1618792861700058
1773200110024912600,1.45191259765625,-0.17104226350784302,-0.012828170321881771,0.1459967941045761
1773200110040933000,1.46793310546875,-0.14966198801994324,0.021991148591041565,0.09529497474431992
1773200110056927000,1.483927001953125,-0.12767083942890167,0.00366519158706069,0.039706241339445114
1773200110072917500,1.49991748046875,-0.08674286305904388,-0.06169738993048668,-0.030543262138962746
1773200110088937500,1.5159375,-0.05864306539297104,-0.07880161702632904,-0.06963863968849182
1773200110104928500,1.531928466796875,-0.036651913076639175,-0.10506882518529892,-0.0806342139840126
1773200110120922400,1.54792236328125,-0.04092797264456749,-0.11301007121801376,-0.0659734457731247
1773200110136912000,1.563911865234375,-0.054367005825042725,-0.1270599663257599,-0.02321287989616394
1773200110152932600,1.5799326171875,-0.039706241339445114,-0.07452555745840073,0.06352998316287994
1773200110168926700,1.5959267578125,-0.029932396486401558,-0.009773843921720982,0.11423180252313614
1773200110184916200,1.611916259765625,-0.02626720629632473,0.03420845419168472,0.13011430203914642
1773200110200937000,1.62793701171875,-0.033597588539123535,0.02687807008624077,0.08429940044879913
1773200110216929500,1.643929443359375,-0.0403171069920063,-0.019547687843441963,0.018325956538319588
1773200110232922400,1.65992236328125,-0.05497787147760391,-0.09040805697441101,-0.05009094998240471
1773200110248913200,1.6759130859375,-0.05192354694008827,-0.10812314599752426,-0.06414084881544113
1773200110264934000,1.691933837890625,-0.01771509274840355,-0.08674286305904388,-0.06963863968849182
1773200110280925000,1.707925048828125,0.021380282938480377,-0.04703662544488907,-0.05009094998240471
1773200110296917200,1.723917236328125,0.03787364438176155,-0.02871066704392433,-0.00733038317412138
1773200110312939000,1.73993896484375,0.029932396486401558,-0.012217304669320583,0.039095375686883926
1773200110328929300,1.75592919921875,0.022602014243602753,-0.010995574295520782,0.05253441259264946
1773200110344921900,1.771921875,0.03848451003432274,-0.05192354694008827,0.059864792972803116
1773200110360940500,1.7879404296875,0.06902777403593063,-0.10934487730264664,0.05497787147760391
1773200110376935000,1.803934814453125,0.06291911751031876,-0.13561208546161652,0.04886921867728233
1773200110392924400,1.81992431640625,0.019547687843441963,-0.08185594528913498,0.025656340643763542
1773200110408915700,1.835915771484375,-0.006108652334660292,-0.0354301854968071,0.0024434609804302454
1773200110424937500,1.8519375,-0.02626720629632473,0.006108652334660292,-0.0403171069920063
1773200110440928800,1.8679287109375,-0.042760565876960754,0.03787364438176155,-0.06902777403593063
1773200110456921000,1.883921142578125,-0.039095375686883926,0.05619960278272629,-0.06169738993048668
1773200110472941600,1.899941650390625,0.00855211354792118,0.02015855349600315,0.01038470957428217
1773200110488933000,1.91593310546875,0.033597588539123535,0.006108652334660292,0.07269296050071716
1773200110504923000,1.9319228515625,0.036651913076639175,0.02015855349600315,0.1258382350206375
1773200110520914000,1.947913818359375,0.02932153269648552,0.06169738993048668,0.13988813757896423
1773200110536938000,1.96393798828125,0.016493361443281174,0.07696902006864548,0.11301007121801376
1773200110552928500,1.979928466796875,0.013439035043120384,0.04337143152952194,0.029932396486401558
1773200110568919600,1.99591943359375,0.027488935738801956,-0.00733038317412138,-0.02687807008624077
1773200110584941000,2.011941162109375,0.04092797264456749,-0.06780604273080826,-0.09162978827953339
1773200110600930800,2.027930908203125,0.059864792972803116,-0.06291911751031876,-0.08857546001672745
1773200110616924400,2.04392431640625,0.08552113175392151,0.012217304669320583,-0.022602014243602753
1773200110632913200,2.0599130859375,0.07513642311096191,0.09957103431224823,0.0708603709936142
1773200110648937000,2.07593701171875,0.06230825558304787,0.11789698898792267,0.11301007121801376
1773200110664927700,2.091927734375,0.05619960278272629,0.11667526513338089,0.13439035415649414
1773200110680919000,2.1079189453125,0.05803219974040985,0.1007927656173706,0.14049901068210602
1773200110696941800,2.12394189453125,0.06658431142568588,0.08002334833145142,0.13561208546161652
1773200110712933000,2.13993310546875,0.10567969083786011,0.0507018156349659,0.10567969083786011
1773200110728923400,2.15592333984375,0.11850785464048386,0.025656340643763542,0.06352998316287994
1773200110744913000,2.171912841796875,0.1368338167667389,0.029932396486401558,-0.012217304669320583
1773200110760935200,2.18793505859375,0.1514945775270462,0.045204028487205505,-0.09834930300712585
1773200110776929000,2.203928955078125,0.11667526513338089,0.06169738993048668,-0.2028072625398636
1773200110792917200,2.219917236328125,0.05497787147760391,-0.039095375686883926,-0.3579670190811157
1773200110808940300,2.235940185546875,0.02871066704392433,-0.11545353382825851,-0.4349360466003418
1773200110824932900,2.251932861328125,0.009162978269159794,-0.16554448008537292,-0.4489859640598297
1773200110840922600,2.267922607421875,0.003054326167330146,-0.15882496535778046,-0.35613444447517395
1773200110856914400,2.28391455078125,0.021991148591041565,-0.06963863968849182,-0.2076941877603531
1773200110872936700,2.299936767578125,0.06963863968849182,0.08002334833145142,-0.0012217304902151227
1773200110888925700,2.31592578125,0.09040805697441101,0.16249015927314758,0.0757472887635231
1773200110904918300,2.331918212890625,0.09651670604944229,0.1765400618314743,0.06780604273080826
1773200110920938200,2.347938232421875,0.10018189996480942,0.11423180252313614,-0.009162978269159794
1773200110936929500,2.363929443359375,0.11239920556545258,0.02321287989616394,-0.09957103431224823
1773200110952922400,2.37992236328125,0.11972958594560623,-0.042760565876960754,-0.1722639948129654
1773200110968913700,2.39591357421875,0.12217304855585098,-0.015271631069481373,-0.19303341209888458
1773200110984934400,2.411934326171875,0.12339477986097336,0.0708603709936142,-0.18448130786418915
1773200111000926500,2.427926513671875,0.11972958594560623,0.21624629199504852,-0.1466076523065567
1773200111016919300,2.443919189453125,0.1160643994808197,0.3891211748123169,-0.10812314599752426
1773200111032939500,2.459939453125,0.1313360333442688,0.5051855444908142,-0.06841690838336945
1773200111048932000,2.47593212890625,0.14355333149433136,0.5002986192703247,-0.05864306539297104
1773200111064923400,2.49192333984375,0.1514945775270462,0.35735616087913513,-0.02626720629632473
1773200111080912000,2.507911865234375,0.12217304855585098,0.27000242471694946,-0.0403171069920063
1773200111096936000,2.52393603515625,0.0659734457731247,0.22296582162380219,-0.06475171446800232
1773200111112926000,2.539926025390625,0.022602014243602753,0.18325957655906677,-0.09346238523721695
1773200111128917200,2.555917236328125,0.00366519158706069,0.14416420459747314,-0.11789698898792267
1773200111144939000,2.57193896484375,0.018325956538319588,0.1014036312699318,-0.12767083942890167
1773200111160930000,2.587929931640625,0.05619960278272629,0.07024950534105301,-0.1014036312699318
1773200111176921000,2.603921142578125,0.0861319974064827,0.09834930300712585,-0.048258353024721146
1773200111192943400,2.619943359375,0.14355333149433136,0.15332718193531036,0.06169738993048668
1773200111208935000,2.635934814453125,0.1765400618314743,0.16432274878025055,0.09346238523721695
1773200111224924200,2.651924072265625,0.2370157092809677,0.18814650177955627,0.1160643994808197
1773200111240917500,2.66791748046875,0.25595253705978394,0.1973094791173935,0.10506882518529892
1773200111256939000,2.68393896484375,0.28527405858039856,0.19486601650714874,0.07880161702632904
1773200111272929800,2.6999296875,0.32986724376678467,0.19058994948863983,0.09346238523721695
1773200111288919600,2.71591943359375,0.37690386176109314,0.242513507604599,0.13500121235847473
1773200111304941600,2.731941650390625,0.4288274049758911,0.3243694305419922,0.192422553896904
1773200111320934100,2.74793408203125,0.4612032473087311,0.42271876335144043,0.21074850857257843
1773200111336926700,2.7639267578125,0.47769662737846375,0.46364670991897583,0.17104226350784302
1773200111352916700,2.779916748046875,0.48380526900291443,0.38240164518356323,0.10506882518529892
1773200111368938200,2.795938232421875,0.4746423065662384,0.2883284091949463,0.11484266817569733
1773200111384927700,2.811927734375,0.45326200127601624,0.22113321721553802,0.19303341209888458
1773200111400921900,2.827921875,0.4349360466003418,0.30115658044815063,0.3029891550540924
1773200111416944400,2.8439443359375,0.42638394236564636,0.37629300355911255,0.3646865487098694
1773200111432933000,2.85993310546875,0.42088615894317627,0.342695415019989,0.43737950921058655
1773200111448923100,2.875923095703125,0.40744712948799133,0.24923302233219147,0.4911356568336487
1773200111464915700,2.891915771484375,0.3500257730484009,0.1563815027475357,0.5412266254425049
1773200111480937200,2.907937255859375,0.29077184200286865,0.12889257073402405,0.5186246037483215
1773200111496929000,2.923928955078125,0.24434609711170197,0.12339477986097336,0.3885102868080139
1773200111512920000,2.939920166015625,0.24556782841682434,0.14416420459747314,0.1466076523065567
1773200111528941800,2.95594189453125,0.21930062770843506,0.10934487730264664,-0.02076941914856434
1773200111544932600,2.9719326171875,0.1368338167667389,0.031154127791523933,-0.19792033731937408
1773200111560923100,2.987923095703125,0.03237585723400116,-0.07696902006864548,-0.31031954288482666
1773200111576918000,3.00391796875,-0.031154127791523933,-0.12950342893600464,-0.303600013256073
1773200111592937700,3.019937744140625,-0.14538592100143433,-0.08857546001672745,-0.14355333149433136
1773200111608928000,3.035927978515625,-0.22540926933288574,0.021991148591041565,-0.001832595793530345
1773200111624921000,3.051921142578125,-0.3139847218990326,0.1771509200334549,0.17348572611808777
1773200111640941800,3.06794189453125,-0.3536909818649292,0.21502456068992615,0.2577851414680481
1773200111656933000,3.08393310546875,-0.41233405470848083,0.17348572611808777,0.2583959996700287
1773200111672925000,3.099925048828125,-0.485027015209198,0.182648703455925,0.18570303916931152
1773200111688915200,3.115915283203125,-0.4807509481906891,0.23457226157188416,0.12461651116609573
1773200111704938200,3.131938232421875,-0.4098905920982361,0.27000242471694946,0.0555887371301651
1773200111720929500,3.147929443359375,-0.2932153046131134,0.31031954288482666,0.001832595793530345
1773200111736920000,3.163920166015625,-0.19058994948863983,0.33475416898727417,-0.01160643994808197
1773200111752941000,3.179941162109375,-0.0757472887635231,0.34574973583221436,0.036041051149368286
1773200111768930800,3.195930908203125,0.007941247895359993,0.36651915311813354,0.09040805697441101
1773200111784922000,3.211922119140625,0.11423180252313614,0.40133845806121826,0.13377949595451355
1773200111800913700,3.22791357421875,0.1661553531885147,0.40744712948799133,0.11850785464048386
1773200111816937500,3.2439375,0.16065755486488342,0.41111230850219727,0.07452555745840073
1773200111832926500,3.259926513671875,0.09040805697441101,0.3640756905078888,0.00855211354792118
1773200111848920300,3.27592041015625,0.024434609338641167,0.29077184200286865,-0.042760565876960754
1773200111864939000,3.29193896484375,-0.04459316283464432,0.19303341209888458,-0.1014036312699318
1773200111880932000,3.30793212890625,-0.11911872029304504,0.0757472887635231,-0.17409659922122955
1773200111896922600,3.323922607421875,-0.18081611394882202,0.02687807008624077,-0.18814650177955627
1773200111912914200,3.3399140625,-0.2321287989616394,0.1111774742603302,-0.12522737681865692
1773200111928935000,3.355934814453125,-0.2577851414680481,0.2125810980796814,-0.04642575979232788
1773200111944926700,3.3719267578125,-0.2926044464111328,0.3243694305419922,0.07330382615327835
1773200111960917200,3.387917236328125,-0.304210901260376,0.34513887763023376,0.13744467496871948
1773200111976939800,3.403939697265625,-0.27000242471694946,0.28649580478668213,0.16004669666290283
1773200111992929500,3.419929443359375,-0.21624629199504852,0.15760323405265808,0.13988813757896423
1773200112008921300,3.43592138671875,-0.1973094791173935,0.09040805697441101,0.10873401165008545
1773200112024912600,3.45191259765625,-0.1771509200334549,0.06963863968849182,0.0806342139840126
1773200112040936200,3.467936279296875,-0.16554448008537292,0.14477506279945374,0.04764748737215996
1773200112056927700,3.483927734375,-0.15454891324043274,0.21074850857257843,0.01771509274840355
1773200112072918300,3.499918212890625,-0.12461651116609573,0.2431243658065796,-0.0403171069920063
1773200112088938000,3.51593798828125,-0.12095131725072861,0.17959438264369965,-0.07757988572120667
1773200112104932400,3.531932373046875,-0.15515977144241333,0.054367005825042725,-0.1411098688840866
1773200112120921000,3.547921142578125,-0.17776179313659668,-0.015882495790719986,-0.15332718193531036
1773200112136943900,3.56394384765625,-0.1722639948129654,0.04214970022439957,-0.07880161702632904
1773200112152935200,3.57993505859375,-0.1215621829032898,0.2822197377681732,0.10018189996480942
1773200112168925400,3.595925537109375,-0.06902777403593063,0.5595525503158569,0.24129177629947662
1773200112184917800,3.611917724609375,0.021991148591041565,0.9957103729248047,0.42088615894317627
1773200112200938000,3.62793798828125,0.11911872029304504,1.3897184133529663,0.617584764957428
1773200112216930600,3.6439306640625,0.1472185254096985,1.4746286869049072,0.7061602473258972
1773200112232920600,3.659920654296875,0.1569923609495163,1.4569135904312134,0.7018841505050659
1773200112248913200,3.6759130859375,0.1459967941045761,1.528384804725647,0.627358615398407
1773200112264936200,3.691936279296875,0.12950342893600464,1.63467538356781,0.4893030524253845
1773200112280926500,3.707926513671875,0.1612684279680252,1.6920967102050781,0.4043927788734436
1773200112296916700,3.723916748046875,0.19364428520202637,1.5326608419418335,0.3885102868080139
1773200112312937500,3.7399375,0.06841690838336945,1.2657127380371094,0.3543018400669098
1773200112328930000,3.755929931640625,0.02382374368607998,1.0855075120925903,0.3237585723400116
1773200112344921600,3.771921630859375,0.05314527451992035,0.8668177723884583,0.2791654169559479
1773200112360911600,3.78791162109375,0.12339477986097336,0.6041457056999207,0.22052235901355743
1773200112376936400,3.8039365234375,0.1612684279680252,0.3433062732219696,0.09834930300712585
1773200112392925400,3.819925537109375,0.10384709388017654,0.051312681287527084,-0.10506882518529892
1773200112408915700,3.835915771484375,0.05375614017248154,-0.07941248267889023,-0.20097467303276062
1773200112424937500,3.8519375,0.012217304669320583,-0.22907446324825287,-0.31581732630729675
1773200112440931000,3.86793115234375,0.04642575979232788,-0.34574973583221436,-0.3500257730484009
1773200112456921600,3.883921630859375,0.16493362188339233,-0.36713001132011414,-0.31154128909111023
1773200112472943000,3.899943115234375,0.2528982162475586,-0.2816088795661926,-0.2015855312347412
1773200112488932600,3.9159326171875,0.2938261926174164,-0.14905111491680145,-0.09712757170200348
1773200112504923600,3.931923583984375,0.3170390725135803,0.09224065393209457,0.015882495790719986
1773200112520914200,3.9479140625,0.27611109614372253,0.33719760179519653,0.11362093687057495
1773200112536939300,3.963939208984375,0.22296582162380219,0.40133845806121826,0.1362229436635971
1773200112552927700,3.979927734375,0.20586158335208893,0.28527405858039856,0.09773843735456467
1773200112568920300,3.99592041015625,0.21013765037059784,0.1771509200334549,0.07941248267889023
1773200112584942600,4.011942626953125,0.14782938361167908,0.07024950534105301,0.04581489413976669
1773200112600934000,4.027933837890625,0.0507018156349659,0.07391469180583954,0.0757472887635231
1773200112616924700,4.043924560546875,0.045204028487205505,0.001832595793530345,0.13988813757896423
1773200112632916200,4.059916259765625,0.03848451003432274,-0.11056660860776901,0.1661553531885147
1773200112648936700,4.075936767578125,0.018325956538319588,-0.13072516024112701,0.14477506279945374
1773200112664927500,4.091927490234375,0.013439035043120384,-0.07452555745840073,0.11423180252313614
1773200112680920000,4.107920166015625,0.027488935738801956,0.02015855349600315,0.15577064454555511
1773200112696942300,4.1239423828125,0.028099801391363144,0.06536258012056351,0.23090706765651703
1773200112712931300,4.139931396484375,-0.015271631069481373,0.06536258012056351,0.2724458873271942
1773200112728922600,4.155922607421875,-0.02382374368607998,0.0024434609804302454,0.25106561183929443
1773200112744914200,4.1719140625,0.01466076634824276,-0.1820378452539444,0.14294247329235077
1773200112760937200,4.187937255859375,0.033597588539123535,-0.3805690407752991,0.060475658625364304
1773200112776928800,4.2039287109375,0.014049900695681572,-0.5381723046302795,0.01771509274840355
1773200112792918300,4.219918212890625,-0.04948008432984352,-0.694553792476654,0.0012217304902151227
1773200112808939800,4.235939697265625,-0.03848451003432274,-0.7263187766075134,0.004886921960860491
1773200112824932000,4.25193212890625,0.04153883829712868,-0.598647952079773,0.04153883829712868
1773200112840921900,4.267921875,0.09712757170200348,-0.32620203495025635,0.15393804013729095
1773200112856916700,4.283916748046875,0.11728613078594208,-0.08796459436416626,0.31154128909111023
1773200112872937000,4.29993701171875,0.14294247329235077,0.20341812074184418,0.5051855444908142
1773200112888928000,4.315927978515625,0.1563815027475357,0.27488934993743896,0.53328537940979
1773200112904917500,4.33191748046875,0.1973094791173935,0.27977627515792847,0.4648684561252594
1773200112920939300,4.347939208984375,0.2119702398777008,0.18509216606616974,0.32131510972976685
1773200112936933600,4.36393359375,0.2321287989616394,0.045204028487205505,0.15332718193531036
1773200112952923400,4.37992333984375,0.2632829248905182,-0.08918632566928864,0.02932153269648552
1773200112968916000,4.395916015625,0.3017674386501312,-0.12522737681865692,-0.001832595793530345
1773200112984934700,4.4119345703125,0.32070425152778625,-0.10751228034496307,-0.012217304669320583
1773200113000927700,4.427927734375,0.31031954288482666,-0.04703662544488907,-0.00855211354792118
1773200113016920300,4.44392041015625,0.29016098380088806,0.02932153269648552,0.004886921960860491
1773200113032940500,4.4599404296875,0.27000242471694946,0.15515977144241333,0.0659734457731247
1773200113048931600,4.475931640625,0.2626720666885376,0.21013765037059784,0.11178833991289139
1773200113064924700,4.491924560546875,0.2687807083129883,0.2785545587539673,0.12767083942890167
1773200113080913200,4.5079130859375,0.304210901260376,0.2919935882091522,0.04703662544488907
1773200113096936700,4.523936767578125,0.2968805134296417,0.15943582355976105,-0.09529497474431992
1773200113112927500,4.539927490234375,0.2669481039047241,0.04886921867728233,-0.242513507604599
1773200113128916700,4.555916748046875,0.26633724570274353,0.05925392732024193,-0.251676470041275
1773200113144941600,4.571941650390625,0.24068090319633484,0.1319468915462494,-0.17959438264369965
1773200113160931600,4.587931640625,0.21135938167572021,0.20463985204696655,-0.06780604273080826
1773200113176924700,4.603924560546875,0.22113321721553802,0.2877175211906433,-0.01466076634824276
1773200113192943600,4.619943603515625,0.18570303916931152,0.2767219543457031,-0.054367005825042725
1773200113208934400,4.635934326171875,0.2021963894367218,0.23579397797584534,-0.11178833991289139
1773200113224926700,4.6519267578125,0.22052235901355743,0.14477506279945374,-0.19425514340400696
1773200113240919600,4.66791943359375,0.21991148591041565,-0.006719517521560192,-0.31093040108680725
1773200113256939500,4.683939453125,0.20830504596233368,-0.18509216606616974,-0.4153883755207062
1773200113272930800,4.699930908203125,0.16798794269561768,-0.33169981837272644,-0.5265658497810364
1773200113288921600,4.715921630859375,0.1319468915462494,-0.3536909818649292,-0.5210680365562439
1773200113304942300,4.7319423828125,0.08368854224681854,-0.21807889640331268,-0.40622538328170776
1773200113320935200,4.74793505859375,0.04337143152952194,-0.06414084881544113,-0.28588494658470154
1773200113336925700,4.76392578125,0.019547687843441963,0.1111774742603302,-0.13439035415649414
1773200113352917500,4.77991748046875,0.004886921960860491,0.20525072515010834,-0.01771509274840355
1773200113368951600,4.79595166015625,-0.0012217304902151227,0.1869247704744339,-0.006719517521560192
1773200113384929000,4.811928955078125,-0.01710422709584236,0.07452555745840073,-0.05314527451992035
1773200113400923000,4.8279228515625,-0.04948008432984352,-0.10384709388017654,-0.17898350954055786
1773200113416943400,4.843943359375,-0.051312681287527084,-0.24862214922904968,-0.27061331272125244
1773200113432935700,4.859935791015625,-0.04764748737215996,-0.2981022298336029,-0.2938261926174164
1773200113448925700,4.87592578125,-0.05619960278272629,-0.2321287989616394,-0.2687807083129883
1773200113464917200,4.891917236328125,-0.051312681287527084,-0.08185594528913498,-0.182648703455925
1773200113480940300,4.907940185546875,-0.021991148591041565,0.025045474991202354,-0.0910189226269722
1773200113496931600,4.923931640625,0.0006108652451075613,0.10567969083786011,-0.021991148591041565
1773200113512920300,4.93992041015625,0.021991148591041565,0.13316862285137177,-0.010995574295520782
1773200113528944000,4.955944091796875,0.036651913076639175,0.11789698898792267,-0.03481931984424591
1773200113544932400,4.971932373046875,0.05803219974040985,0.0959058403968811,-0.08307767659425735
1773200113560925200,4.98792529296875,0.0757472887635231,0.05864306539297104,-0.1466076523065567
1773200113576917500,5.00391748046875,0.06291911751031876,0.00733038317412138,-0.2070833146572113
1773200113592938500,5.0199384765625,0.03298672288656235,-0.025656340643763542,-0.24068090319633484
1773200113608930000,5.035929931640625,0.03848451003432274,0.003054326167330146,-0.2321287989616394
1773200113624921000,5.051921142578125,0.07147123664617538,0.07452555745840073,-0.18570303916931152
1773200113640940500,5.0679404296875,0.0910189226269722,0.1362229436635971,-0.13988813757896423
1773200113656932900,5.083932861328125,0.10018189996480942,0.17837265133857727,-0.10751228034496307
1773200113672926500,5.099926513671875,0.09040805697441101,0.13927727937698364,-0.11056660860776901
1773200113688915500,5.11591552734375,0.0910189226269722,0.15515977144241333,-0.13072516024112701
1773200113704938200,5.131938232421875,0.09957103431224823,0.1618792861700058,-0.1472185254096985
1773200113720929000,5.147928955078125,0.10995574295520782,0.14416420459747314,-0.1661553531885147
1773200113736922000,5.163922119140625,0.1319468915462494,0.14294247329235077,-0.16493362188339233
1773200113752941000,5.179941162109375,0.182648703455925,0.16004669666290283,-0.12034045159816742
1773200113768931800,5.195931884765625,0.21380282938480377,0.15882496535778046,-0.09407325088977814
1773200113784923600,5.211923583984375,0.242513507604599,0.14782938361167908,-0.10018189996480942
1773200113800914200,5.2279140625,0.25473082065582275,0.13988813757896423,-0.1270599663257599
1773200113816938500,5.2439384765625,0.2779437005519867,0.14782938361167908,-0.16249015927314758
1773200113832928500,5.259928466796875,0.28466320037841797,0.1716531366109848,-0.1820378452539444
1773200113848918000,5.27591796875,0.27611109614372253,0.182648703455925,-0.17348572611808777
1773200113864941800,5.29194189453125,0.2718350291252136,0.18081611394882202,-0.14966198801994324
1773200113880932000,5.30793212890625,0.2919935882091522,0.17776179313659668,-0.11178833991289139
1773200113896925000,5.323925048828125,0.30970868468284607,0.1612684279680252,-0.09957103431224823
1773200113912916000,5.339916015625,0.3225368559360504,0.15943582355976105,-0.11911872029304504
1773200113928936400,5.3559365234375,0.3243694305419922,0.17776179313659668,-0.1368338167667389
1773200113944928300,5.37192822265625,0.32131510972976685,0.21930062770843506,-0.1472185254096985
1773200113960920300,5.38792041015625,0.34086281061172485,0.2681698501110077,-0.14966198801994324
1773200113976942000,5.403942138671875,0.39156460762023926,0.31642818450927734,-0.1875356286764145
1773200113992932400,5.419932373046875,0.47280970215797424,0.2736676335334778,-0.2590068578720093
1773200114008924200,5.435924072265625,0.5076290369033813,0.2119702398777008,-0.33536502718925476
1773200114024914000,5.451913818359375,0.5149593949317932,0.16065755486488342,-0.4251621961593628
1773200114040938200,5.467938232421875,0.5051855444908142,0.14844025671482086,-0.48380526900291443
1773200114056928500,5.483928466796875,0.4899139404296875,0.1612684279680252,-0.4789183437824249
1773200114072919000,5.4999189453125,0.46303585171699524,0.1771509200334549,-0.4355469346046448
1773200114088939500,5.515939453125,0.4331034719944,0.1563815027475357,-0.39095374941825867
1773200114104931600,5.531931640625,0.4056145250797272,0.08552113175392151,-0.3237585723400116
1773200114120924400,5.54792431640625,0.3878994286060333,0.019547687843441963,-0.2932153046131134
1773200114136946200,5.5639462890625,0.34147366881370544,-0.025656340643763542,-0.2791654169559479
1773200114152934100,5.57993408203125,0.2785545587539673,-0.048258353024721146,-0.2535090744495392
1773200114168926500,5.595926513671875,0.23151792585849762,-0.03726277872920036,-0.22846360504627228
1773200114184917500,5.61191748046875,0.1716531366109848,-0.007941247895359993,-0.20525072515010834
1773200114200939000,5.62793896484375,0.13011430203914642,0.03176499158143997,-0.19364428520202637
1773200114216932400,5.643932373046875,0.12339477986097336,0.0555887371301651,-0.1869247704744339
1773200114232921300,5.65992138671875,0.10873401165008545,0.048258353024721146,-0.21319197118282318
1773200114248915200,5.675915283203125,0.07513642311096191,0.018325956538319588,-0.24495697021484375
1773200114264934100,5.69193408203125,0.013439035043120384,-0.015882495790719986,-0.27977627515792847
1773200114280925000,5.707925048828125,-0.009773843921720982,-0.02932153269648552,-0.29138273000717163
1773200114296919000,5.7239189453125,0.009162978269159794,-0.007941247895359993,-0.27000242471694946
1773200114312941800,5.73994189453125,0.056810468435287476,-0.015882495790719986,-0.17959438264369965
1773200114328929800,5.7559296875,0.07819075137376785,-0.039095375686883926,-0.12217304855585098
1773200114344922400,5.77192236328125,0.08552113175392151,-0.06475171446800232,-0.07024950534105301
1773200114360943900,5.78794384765625,0.07452555745840073,-0.08857546001672745,-0.02871066704392433
1773200114376853500,5.803853515625,0.05253441259264946,-0.12950342893600464,-0.00855211354792118
1773200114392901000,5.819901123046875,0.025656340643763542,-0.14233160018920898,-0.0024434609804302454
1773200114408893000,5.835892822265625,0.019547687843441963,-0.11667526513338089,0.009773843921720982
1773200114424915000,5.8519150390625,0.014049900695681572,-0.04886921867728233,0.051312681287527084
1773200114440907500,5.867907470703125,0.0012217304902151227,-0.02871066704392433,0.08429940044879913
1773200114456899600,5.883899658203125,-0.02871066704392433,-0.00733038317412138,0.051312681287527084
1773200114472918300,5.899918212890625,-0.02321287989616394,-0.02076941914856434,0.01710422709584236
1773200114488909300,5.915909423828125,-0.02871066704392433,-0.05864306539297104,0.033597588539123535
1773200114504903400,5.9319033203125,-0.060475658625364304,-0.10995574295520782,0.08246681094169617
1773200114520894000,5.94789404296875,-0.10690141469240189,-0.1014036312699318,0.15332718193531036
1773200114536915700,5.963915771484375,-0.14049901068210602,-0.07147123664617538,0.20463985204696655
1773200114552906000,5.979906005859375,-0.16249015927314758,-0.012217304669320583,0.251676470041275
1773200114568897500,5.9958974609375,-0.17959438264369965,0.003054326167330146,0.242513507604599
1773200114584919600,6.01191943359375,-0.2064724564552307,-0.012828170321881771,0.20097467303276062
1773200114600910800,6.027910888671875,-0.2076941877603531,-0.04886921867728233,0.17959438264369965
1773200114616901600,6.043901611328125,-0.2174680233001709,-0.1313360333442688,0.16493362188339233
1773200114632893000,6.059892822265625,-0.27000242471694946,-0.2064724564552307,0.12339477986097336
1773200114648913400,6.075913330078125,-0.31031954288482666,-0.2125810980796814,0.09407325088977814
1773200114664907000,6.091906982421875,-0.3439171314239502,-0.18081611394882202,0.07757988572120667
1773200114680898300,6.107898193359375,-0.35063666105270386,-0.10812314599752426,0.1319468915462494
1773200114696919300,6.123919189453125,-0.3439171314239502,-0.060475658625364304,0.24373523890972137
1773200114712908500,6.139908447265625,-0.36651915311813354,-0.01160643994808197,0.4001167416572571
1773200114728899600,6.155899658203125,-0.3689626157283783,-0.00427605677396059,0.4300491213798523
1773200114744892700,6.171892578125,-0.36224308609962463,-0.025656340643763542,0.41599923372268677
1773200114760914400,6.18791455078125,-0.33108896017074585,-0.05803219974040985,0.34086281061172485
1773200114776906800,6.20390673828125,-0.2877175211906433,-0.09712757170200348,0.22052235901355743
1773200114792896300,6.219896240234375,-0.2565633952617645,-0.1765400618314743,0.14538592100143433
1773200114808917500,6.23591748046875,-0.25473082065582275,-0.1966986060142517,0.13011430203914642
1773200114824909600,6.25190966796875,-0.2382374405860901,-0.18814650177955627,0.1258382350206375
1773200114840898600,6.267898681640625,-0.2015855312347412,-0.15515977144241333,0.14049901068210602
1773200114856893000,6.283892822265625,-0.17287486791610718,-0.12217304855585098,0.15577064454555511
1773200114872912600,6.29991259765625,-0.1466076523065567,-0.07757988572120667,0.13072516024112701
1773200114888904200,6.315904296875,-0.1411098688840866,-0.0659734457731247,0.1062905490398407
1773200114904894500,6.33189453125,-0.11728613078594208,-0.027488935738801956,0.06902777403593063
1773200114920918300,6.347918212890625,-0.08979719132184982,-0.027488935738801956,0.039706241339445114
1773200114936910300,6.363910400390625,-0.06291911751031876,-0.054367005825042725,-0.0024434609804302454
1773200114952899000,6.379899169921875,-0.029932396486401558,-0.1007927656173706,-0.04092797264456749
1773200114968890600,6.395890625,0,-0.12461651116609573,-0.07819075137376785
1773200114984912600,6.41191259765625,0.0354301854968071,-0.14782938361167908,-0.1264491081237793
1773200115000903200,6.427903076171875,0.05497787147760391,-0.16982053220272064,-0.20463985204696655
1773200115016896800,6.443896728515625,0.051312681287527084,-0.2028072625398636,-0.2889392673969269
1773200115032917200,6.459917236328125,0.0354301854968071,-0.18325957655906677,-0.3634648323059082
1773200115048906800,6.47590673828125,0.036651913076639175,-0.1569923609495163,-0.3842342495918274
1773200115064898000,6.49189794921875,0.03787364438176155,-0.15454891324043274,-0.3854559659957886
1773200115080892000,6.507891845703125,0.01710422709584236,-0.17898350954055786,-0.3903428912162781
1773200115096913000,6.523912841796875,-0.02076941914856434,-0.18814650177955627,-0.38606682419776917
1773200115112902400,6.53990234375,-0.09529497474431992,-0.13927727937698364,-0.33108896017074585
1773200115128893400,6.5558935546875,-0.13439035415649414,-0.09957103431224823,-0.24862214922904968
1773200115144915700,6.571915771484375,-0.16982053220272064,-0.03481931984424591,-0.09224065393209457
1773200115160906800,6.58790673828125,-0.16371189057826996,0.010995574295520782,0.018936822190880775
1773200115176899300,6.6038994140625,-0.13072516024112701,0.012217304669320583,0.09651670604944229
1773200115192920000,6.619920166015625,-0.09162978827953339,0.006719517521560192,0.10445795953273773
1773200115208912000,6.635911865234375,-0.06169738993048668,0.015882495790719986,0.07696902006864548
1773200115224902700,6.651902587890625,-0.019547687843441963,0.039095375686883926,0.006719517521560192
1773200115240893000,6.667892822265625,0.027488935738801956,0.05253441259264946,-0.1215621829032898
1773200115256917000,6.6839169921875,0.05192354694008827,0.04153883829712868,-0.23640485107898712
1773200115272907500,6.699907470703125,0.054367005825042725,0.027488935738801956,-0.3604104816913605
1773200115288896800,6.715896728515625,0.051312681287527084,0.025656340643763542,-0.40683624148368835
1773200115304920800,6.7319208984375,0.033597588539123535,0.03237585723400116,-0.4306600093841553
1773200115320912600,6.74791259765625,0.02932153269648552,0.04153883829712868,-0.4184426963329315
1773200115336903200,6.763903076171875,0.019547687843441963,0.0354301854968071,-0.38117989897727966
1773200115352893700,6.779893798828125,-0.00427605677396059,0.006108652334660292,-0.303600013256073
1773200115368915700,6.795915771484375,-0.01710422709584236,0.007941247895359993,-0.22418753802776337
1773200115384904700,6.81190478515625,-0.025045474991202354,0.04398229718208313,-0.09957103431224823
1773200115400897500,6.8278974609375,-0.0024434609804302454,0.12889257073402405,0.02321287989616394
1773200115416920600,6.843920654296875,0.025656340643763542,0.18448130786418915,0.08002334833145142
1773200115432911000,6.8599111328125,0.060475658625364304,0.24617868661880493,0.04092797264456749
1773200115448901000,6.875901123046875,0.08491026610136032,0.20891591906547546,0.013439035043120384
1773200115464892200,6.89189208984375,0.09224065393209457,0.16859880089759827,0.028099801391363144
1773200115480913200,6.9079130859375,0.1258382350206375,0.1918116807937622,0.03420845419168472
1773200115496907000,6.923906982421875,0.16432274878025055,0.2681698501110077,0.04092797264456749
1773200115512896000,6.93989599609375,0.22052235901355743,0.3219259977340698,0.05375614017248154
1773200115528919300,6.955919189453125,0.2681698501110077,0.3292563557624817,0.060475658625364304
1773200115544908500,6.971908447265625,0.3139847218990326,0.3072652220726013,0.07024950534105301
1773200115560902100,6.987902099609375,0.33169981837272644,0.252287358045578,0.08979719132184982
1773200115576892200,7.00389208984375,0.3597996234893799,0.28588494658470154,0.09712757170200348
1773200115592913400,7.019913330078125,0.42149701714515686,0.37201693654060364,0.12339477986097336
1773200115608906200,7.03590625,0.44287729263305664,0.4544837474822998,0.12217304855585098
1773200115624895700,7.051895751953125,0.4300491213798523,0.5552765130996704,0.1062905490398407
1773200115640917500,7.06791748046875,0.3683517575263977,0.6163630485534668,0.12828169763088226
1773200115656909000,7.083908935546875,0.29993483424186707,0.6774495840072632,0.2021963894367218
1773200115672899600,7.099899658203125,0.32131510972976685,0.627358615398407,0.23640485107898712
1773200115688890600,7.115890625,0.36224308609962463,0.45875978469848633,0.1722639948129654
1773200115704914000,7.131913818359375,0.3897320330142975,0.1466076523065567,0.0757472887635231
1773200115720905000,7.147905029296875,0.3701843321323395,-0.2021963894367218,0.05009094998240471
1773200115736897800,7.163897705078125,0.3384193480014801,-0.33719760179519653,0.07941248267889023
1773200115752917000,7.1799169921875,0.313373863697052,-0.2174680233001709,0.13805554807186127
1773200115768910600,7.19591064453125,0.3084869384765625,-0.0555887371301651,0.14233160018920898
1773200115784899300,7.2118994140625,0.2987131178379059,0.1508837193250656,0.0910189226269722
1773200115800891600,7.2278916015625,0.2571742534637451,0.27122417092323303,-0.00366519158706069
1773200115816913200,7.2439130859375,0.14538592100143433,0.31031954288482666,-0.16920967400074005
1773200115832905000,7.259905029296875,-0.005497787147760391,0.251676470041275,-0.39156460762023926
1773200115848896000,7.27589599609375,-0.0861319974064827,0.23335053026676178,-0.5021312236785889
1773200115864916500,7.29191650390625,-0.1459967941045761,0.2278527319431305,-0.5351179838180542
1773200115880907800,7.30790771484375,-0.1472185254096985,0.31520646810531616,-0.4306600093841553
1773200115896901000,7.323901123046875,-0.08918632566928864,0.394008070230484,-0.2541199326515198
1773200115912921000,7.339921142578125,0.06841690838336945,0.40683624148368835,-0.028099801391363144
1773200115928911600,7.35591162109375,0.15454891324043274,0.3701843321323395,0.08002334833145142
1773200115944903000,7.37190283203125,0.18997909128665924,0.27977627515792847,0.13316862285137177
1773200115960895700,7.387895751953125,0.21135938167572021,0.20402899384498596,0.09040805697441101
1773200115976919000,7.4039189453125,0.2724458873271942,0.1417207419872284,0.012828170321881771
1773200115992909300,7.419909423828125,0.33475416898727417,0.08429940044879913,-0.08429940044879913
1773200116008899600,7.435899658203125,0.34636059403419495,0.0012217304902151227,-0.12095131725072861
1773200116024890400,7.451890380859375,0.31581732630729675,-0.1215621829032898,-0.15027284622192383
1773200116040912600,7.46791259765625,0.24190263450145721,-0.22296582162380219,-0.1411098688840866
1773200116056905000,7.483905029296875,0.1771509200334549,-0.2119702398777008,-0.10201449692249298
1773200116072893200,7.49989306640625,0.09224065393209457,-0.10934487730264664,-0.0555887371301651
1773200116088914700,7.515914794921875,0.03420845419168472,-0.02015855349600315,-0.03176499158143997
1773200116104907500,7.531907470703125,-0.022602014243602753,0.05192354694008827,0.021380282938480377
1773200116120899300,7.5478994140625,-0.03481931984424591,0.0861319974064827,0.05497787147760391
1773200116136890400,7.563890380859375,-0.048258353024721146,0.09224065393209457,0.015271631069481373
1773200116152912000,7.579911865234375,-0.04642575979232788,0.06536258012056351,-0.16249015927314758
1773200116168901600,7.595901611328125,-0.03481931984424591,0.05375614017248154,-0.26633724570274353
1773200116184893400,7.6118935546875,-0.00733038317412138,0.021991148591041565,-0.3066543638706207
1773200116200914400,7.62791455078125,0.05192354694008827,0.025656340643763542,-0.2687807083129883
1773200116216908800,7.64390869140625,0.0959058403968811,0.028099801391363144,-0.2125810980796814
1773200116232898300,7.659898193359375,0.13011430203914642,0.02626720629632473,-0.15943582355976105
1773200116248920000,7.675920166015625,0.1411098688840866,-0.001832595793530345,-0.15943582355976105
1773200116264909300,7.691909423828125,0.15332718193531036,-0.03420845419168472,-0.17776179313659668
1773200116280645400,7.707645263671875,0.16249015927314758,-0.05803219974040985,-0.17104226350784302
1773200116296895500,7.7238955078125,0.17043140530586243,-0.09407325088977814,-0.10751228034496307
1773200116313096700,7.7400966796875,0.1270599663257599,-0.1459967941045761,-0.001832595793530345
1773200116324907500,7.751907470703125,0.1270599663257599,-0.1459967941045761,-0.001832595793530345
1773200116336904000,7.763904052734375,0.1270599663257599,-0.1459967941045761,-0.001832595793530345
1773200116352893400,7.7798935546875,0.1270599663257599,-0.1459967941045761,-0.001832595793530345
1773200116368915200,7.795915283203125,0.1270599663257599,-0.1459967941045761,-0.001832595793530345
1773200116384906500,7.811906494140625,0.1270599663257599,-0.1459967941045761,-0.001832595793530345
1773200116400895700,7.827895751953125,0.1270599663257599,-0.1459967941045761,-0.001832595793530345
1773200116416919600,7.84391943359375,0.1270599663257599,-0.1459967941045761,-0.001832595793530345
1773200116432910300,7.859910400390625,0.1270599663257599,-0.1459967941045761,-0.001832595793530345
1773200116448900400,7.875900390625,0.010995574295520782,-0.24129177629947662,0.014049900695681572
1773200116464892000,7.891891845703125,0.0861319974064827,-0.2223549485206604,-0.14782938361167908
1773200116480914400,7.90791455078125,0.17898350954055786,-0.21624629199504852,-0.2871066629886627
1773200116496907500,7.923907470703125,0.21930062770843506,-0.2626720666885376,-0.3280346393585205
1773200116512896000,7.93989599609375,0.1869247704744339,-0.3341432809829712,-0.24068090319633484
1773200116528917500,7.95591748046875,0.12889257073402405,-0.35552358627319336,-0.08491026610136032
1773200116544908300,7.971908203125,0.05803219974040985,-0.2730567753314972,0.09773843735456467
1773200116560902000,7.98790185546875,0.009162978269159794,-0.18325957655906677,0.29016098380088806
1773200116576894200,8.003894287109375,-0.006719517521560192,-0.13072516024112701,0.4282165467739105
1773200116592915700,8.019915771484374,0.00427605677396059,-0.08429940044879913,0.5186246037483215
1773200116608906000,8.035906005859376,0.03420845419168472,-0.04581489413976669,0.5406157374382019
1773200116624897300,8.051897216796876,0.06475171446800232,-0.07513642311096191,0.5125159621238708
1773200116640918300,8.067918212890625,0.07391469180583954,-0.13011430203914642,0.46303585171699524
1773200116656909300,8.083909423828125,0.08674286305904388,-0.18081611394882202,0.3781255781650543
1773200116672899300,8.0998994140625,0.13988813757896423,-0.15454891324043274,0.2773328125476837
1773200116688890600,8.115890625,0.18448130786418915,-0.036651913076639175,0.23518311977386475
1773200116704914200,8.1319140625,0.18814650177955627,0.13866640627384186,0.29504790902137756
1773200116720904000,8.147904052734376,0.15027284622192383,0.11178833991289139,0.4789183437824249
1773200116736897300,8.163897216796874,0.09162978827953339,-0.09529497474431992,0.6322455406188965
1773200116752918800,8.179918701171875,0.04886921867728233,-0.05253441259264946,0.6725626587867737
1773200116768909800,8.195909912109375,-0.10995574295520782,1.0653489828109741,0.6627888083457947
1773200116784899000,8.211899169921875,-0.20952677726745605,1.568701982498169,0.6585127115249634
1773200116800889900,8.227889892578125,-0.28955012559890747,1.7122552394866943,0.8045095205307007
1773200116816914000,8.243913818359376,-0.12461651116609573,1.2247848510742188,0.9437867999076843
1773200116832905500,8.259905517578124,0.11301007121801376,0.8674286603927612,0.9040805697441101
1773200116848895200,8.275895263671876,0.2028072625398636,0.7000515460968018,0.6878342628479004
1773200116864916200,8.291916259765625,0.3549126982688904,0.33536502718925476,0.45142942667007446
1773200116880909300,8.307909423828125,0.4129449129104614,0.08002334833145142,0.1765400618314743
1773200116892901600,8.319901611328126,0.41722095012664795,-0.05497787147760391,-0.0012217304902151227
1773200116908892000,8.335891845703125,0.3897320330142975,-0.11301007121801376,-0.17287486791610718
1773200116920917500,8.34791748046875,0.40133845806121826,-0.045204028487205505,-0.24129177629947662
1773200116936908000,8.363907958984376,0.49357911944389343,0.10690141469240189,-0.22540926933288574
1773200116952900900,8.37990087890625,0.5418374538421631,0.14355333149433136,-0.1771509200334549
1773200116968920300,8.39592041015625,0.5772676467895508,0.11362093687057495,-0.19120082259178162
1773200116984912000,8.411911865234375,0.618195652961731,-0.016493361443281174,-0.20830504596233368
1773200117000902000,8.42790185546875,0.6517932415008545,-0.1466076523065567,-0.21013765037059784
1773200117016895700,8.443895751953125,0.7018841505050659,-0.17409659922122955,-0.19853121042251587
1773200117032915000,8.4599150390625,0.7623597979545593,-0.13744467496871948,-0.18387043476104736
1773200117048906200,8.47590625,0.8417723178863525,-0.1313360333442688,-0.21502456068992615
1773200117064898000,8.49189794921875,0.9468411207199097,-0.13439035415649414,-0.3121521472930908
1773200117080890000,8.50789013671875,1.073290228843689,-0.21319197118282318,-0.4709770977497101
1773200117096913200,8.5239130859375,1.187522053718567,-0.3988949954509735,-0.6444628238677979
1773200117112903000,8.53990283203125,1.215621829032898,-0.5974262356758118,-0.799011766910553
1773200117128892700,8.555892578125,1.207069754600525,-0.6701191663742065,-0.9370672702789307
1773200117144914400,8.57191455078125,1.1826350688934326,-0.5644394755363464,-0.9950994849205017
1773200117160906200,8.58790625,1.1594222784042358,-0.37629300355911255,-0.9340129494667053
1773200117176897300,8.603897216796875,1.1270463466644287,-0.15943582355976105,-0.8155050873756409
1773200117192891400,8.619891357421874,1.0891727209091187,0.05925392732024193,-0.6713408827781677
1773200117208910300,8.635910400390625,1.06351637840271,0.2431243658065796,-0.5198463201522827
1773200117224903200,8.651903076171875,1.026253581047058,0.37629300355911255,-0.3836233615875244
1773200117240892700,8.667892578125,0.979827880859375,0.45142942667007446,-0.3549126982688904
1773200117256916500,8.68391650390625,0.9242390990257263,0.4080579876899719,-0.4386012554168701
1773200117272905000,8.699905029296875,0.8674286603927612,0.32986724376678467,-0.5002986192703247
1773200117288897500,8.7158974609375,0.8197811841964722,0.26083946228027344,-0.494189977645874
1773200117304918800,8.731918701171875,0.8020660877227783,0.2583959996700287,-0.44837507605552673
1773200117320909000,8.747908935546874,0.7904596328735352,0.29626965522766113,-0.384845107793808
1773200117336903700,8.763903564453125,0.7733554244041443,0.35246923565864563,-0.3396410644054413
1773200117352893000,8.779892822265625,0.7318165898323059,0.38606682419776917,-0.34513887763023376
1773200117368913700,8.79591357421875,0.6664539575576782,0.44104471802711487,-0.4129449129104614
1773200117384904700,8.81190478515625,0.5925393104553223,0.41111230850219727,-0.48808133602142334
1773200117400896800,8.827896728515626,0.47769662737846375,0.21991148591041565,-0.5674937963485718
1773200117416919000,8.8439189453125,0.4392121136188507,0.09468411654233932,-0.6450737118721008
1773200117432910800,8.859910888671875,0.513737678527832,0.010995574295520782,-0.6444628238677979
1773200117448900000,8.875900146484375,0.5314527750015259,-0.05009094998240471,-0.6053674817085266
1773200117464892700,8.891892578125,0.4954117238521576,-0.0757472887635231,-0.5644394755363464
1773200117480913000,8.907912841796875,0.48258355259895325,-0.02015855349600315,-0.5094616413116455
1773200117496905500,8.923905517578126,0.4740314185619354,0.12034045159816742,-0.3897320330142975
1773200117512895200,8.939895263671875,0.4648684561252594,0.27122417092323303,-0.15577064454555511
1773200117528917000,8.9559169921875,0.45875978469848633,0.3494149148464203,0.1459967941045761
1773200117544908300,8.971908203125,0.4709770977497101,0.3396410644054413,0.39156460762023926
1773200117560902400,8.98790234375,0.4990769028663635,0.29565876722335815,0.49235737323760986
1773200117576891600,9.0038916015625,0.5094616413116455,0.27000242471694946,0.5271766781806946
1773200117592913700,9.01991357421875,0.5302310585975647,0.2993239760398865,0.5448917746543884
1773200117608903700,9.035903564453125,0.5473352670669556,0.32131510972976685,0.5161811113357544
1773200117624895700,9.051895751953126,0.5259549617767334,0.43737950921058655,0.3744603991508484
1773200117640917800,9.067917724609375,0.46853363513946533,0.4758640229701996,0.20402899384498596
1773200117656909600,9.08390966796875,0.403781920671463,0.46853363513946533,0.12400564551353455
1773200117672900000,9.099900146484375,0.3488040566444397,0.42760565876960754,0.17287486791610718
1773200117688890000,9.11589013671875,0.3084869384765625,0.35735616087913513,0.2431243658065796
1773200117704912000,9.131911865234375,0.2828305959701538,0.24923302233219147,0.3292563557624817
1773200117720903700,9.147903564453125,0.29626965522766113,0.14355333149433136,0.3897320330142975
1773200117736896500,9.163896484375,0.2968805134296417,0.07147123664617538,0.394008070230484
1773200117752919000,9.1799189453125,0.2626720666885376,0.12278391420841217,0.3286454975605011
1773200117768907300,9.1959072265625,0.24434609711170197,0.31459560990333557,0.22663100063800812
1773200117784898000,9.21189794921875,0.23518311977386475,0.5021312236785889,0.1459967941045761
1773200117800890400,9.227890380859375,0.26083946228027344,0.6029239892959595,0.06536258012056351
1773200117816913700,9.24391357421875,0.27977627515792847,0.6065891981124878,-0.045204028487205505
1773200117832903000,9.25990283203125,0.21502456068992615,0.5387831330299377,-0.10018189996480942
1773200117848895200,9.275895263671876,0.1362229436635971,0.513737678527832,-0.03787364438176155
1773200117864916500,9.29191650390625,0.11178833991289139,0.5161811113357544,0.08735372871160507
1773200117880906500,9.307906494140624,0.10323622822761536,0.6017022728919983,0.18631389737129211
1773200117896899000,9.323899169921875,0.07269296050071716,0.6621779203414917,0.27000242471694946
1773200117912890400,9.339890380859375,0.00427605677396059,0.6279694437980652,0.2974913716316223
1773200117928910800,9.355910888671875,-0.029932396486401558,0.626747727394104,0.2834414839744568
1773200117944905000,9.371905029296874,0.021991148591041565,0.6359107494354248,0.23273965716362
1773200117960894500,9.38789453125,0.09834930300712585,0.6542366743087769,0.1160643994808197
1773200117976918500,9.40391845703125,0.14782938361167908,0.675006091594696,-0.02382374368607998
1773200117992906500,9.419906494140625,0.20952677726745605,0.6206390857696533,-0.1612684279680252
1773200118008898300,9.435898193359375,0.25473082065582275,0.45875978469848633,-0.3396410644054413
1773200118024889000,9.45188916015625,0.26022860407829285,0.2541199326515198,-0.5088507533073425
1773200118040910000,9.46791015625,0.24129177629947662,0.11667526513338089,-0.5387831330299377
1773200118056904400,9.483904541015624,0.10262536257505417,0.32498031854629517,-0.4141666293144226
1773200118072894200,9.499894287109376,0.07941248267889023,0.7134906053543091,-0.21563543379306793
1773200118088914000,9.515913818359374,0.2480112910270691,0.8246681094169617,-0.19425514340400696
1773200118104907000,9.531906982421875,0.18997909128665924,0.7727445363998413,-0.2474004179239273
1773200118120897000,9.54789697265625,0.006719517521560192,0.8087855577468872,-0.2431243658065796
1773200118136889300,9.563889404296875,-0.11850785464048386,0.9395107626914978,-0.21991148591041565
1773200118152910800,9.579910888671876,-0.17287486791610718,1.0836749076843262,-0.25045475363731384
1773200118168900600,9.595900634765625,-0.2278527319431305,1.1520918607711792,-0.34574973583221436
1773200118184893700,9.611893798828126,-0.30604347586631775,1.0775662660598755,-0.49846604466438293
1773200118200915200,9.627915283203125,-0.42638394236564636,0.5949827432632446,-0.8326093554496765
1773200118216906800,9.64390673828125,-0.627358615398407,0.21624629199504852,-1.0629055500030518
1773200118232896300,9.659896240234374,-0.788627028465271,0.2981022298336029,-1.301142930984497
1773200118248888300,9.675888427734375,-0.8148942589759827,0.394008070230484,-1.6242907047271729
1773200118264909300,9.691909423828125,-0.5894849896430969,0.21807889640331268,-1.7635679244995117
1773200118280900000,9.707900146484375,-0.3579670190811157,0.3017674386501312,-1.6475036144256592
1773200118296894000,9.72389404296875,-0.13744467496871948,0.6218608021736145,-1.3139711618423462
1773200118312913000,9.739912841796874,-0.022602014243602753,0.8484918475151062,-0.7648032903671265
1773200118328906000,9.755906005859375,0.19058994948863983,1.0506882667541504,-0.38667771220207214
1773200118344898300,9.771898193359375,0.3799581825733185,1.2748757600784302,-0.33292156457901
1773200118360919600,9.78791943359375,0.3530801236629486,1.5112806558609009,-0.44104471802711487
1773200118376911400,9.803911376953126,0.19547687470912933,1.8478673696517944,-0.6145304441452026
1773200118392902100,9.819902099609376,0.15515977144241333,2.188730239868164,-0.6695083379745483
1773200118408893700,9.835893798828126,0.3274237811565399,2.4966063499450684,-0.5528330206871033
1773200118424913000,9.851912841796874,0.484416127204895,2.889392614364624,-0.3640756905078888
1773200118440905500,9.867905517578125,0.5106833577156067,3.2168164253234863,-0.2217440903186798
1773200118456898000,9.88389794921875,0.41599923372268677,3.4691038131713867,-0.23579397797584534
1773200118472917200,9.899917236328125,0.2070833146572113,3.509420871734619,-0.251676470041275
1773200118488907500,9.915907470703125,-0.00733038317412138,3.43978214263916,-0.23335053026676178
1773200118504901600,9.931901611328126,-0.21319197118282318,3.3463199138641357,-0.11667526513338089
1773200118520892000,9.947891845703126,-0.4789183437824249,3.2736268043518066,-0.07147123664617538
1773200118536914400,9.96391455078125,-0.8582656979560852,3.5515706539154053,-0.2565633952617645
1773200118552904000,9.979904052734375,-1.1801916360855103,3.9315288066864014,-0.6255260109901428
1773200118568895500,9.9958955078125,-1.4043792486190796,4.125173091888428,-0.8943067193031311
1773200118584917800,10.011917724609376,-1.7079792022705078,4.159992218017578,-0.7635815739631653
1773200118600908300,10.027908203125,-2.0622811317443848,4.136779308319092,-0.3341432809829712
1773200118616900900,10.04390087890625,-2.288912057876587,3.852727174758911,0.00427605677396059
1773200118632892200,10.05989208984375,-2.3212878704071045,3.3518176078796387,-0.045204028487205505
1773200118648913400,10.075913330078125,-2.2040019035339355,2.7769935131073,-0.394618958234787
1773200118664902400,10.09190234375,-2.1337523460388184,2.247373342514038,-0.8093964457511902
1773200118680895200,10.107895263671875,-2.1673498153686523,1.82404363155365,-1.0653489828109741
1773200118696918500,10.12391845703125,-2.1392500400543213,1.5155566930770874,-1.1276572942733765
1773200118712906800,10.13990673828125,-2.0867156982421875,1.2822061777114868,-1.1142182350158691
1773200118728899600,10.155899658203126,-2.0421226024627686,1.1007791757583618,-1.0781772136688232
1773200118744889300,10.171889404296875,-2.065335512161255,0.9865473508834839,-1.004873275756836
1773200118760911400,10.187911376953124,-2.1765129566192627,0.8759807348251343,-0.9352346658706665
1773200118776905700,10.20390576171875,-2.22477126121521,0.8063421249389648,-0.8662069439888
1773200118792894000,10.21989404296875,-2.183232307434082,0.740368664264679,-0.6908885836601257
1773200118808915700,10.235915771484375,-2.2736403942108154,0.7177666425704956,-0.3591887652873993
1773200118824906000,10.251906005859375,-2.4495697021484375,0.9456194043159485,0.00733038317412138
1773200118840897000,10.26789697265625,-2.4587326049804688,1.035416603088379,0.12767083942890167
1773200118856891600,10.2838916015625,-2.0366246700286865,0.921795666217804,0.07696902006864548
1773200118872910800,10.299910888671874,-1.3377948999404907,0.8588765263557434,0.00733038317412138
1773200118888903700,10.315903564453125,-0.7904596328735352,0.8191702961921692,0.02015855349600315
1773200118904894200,10.331894287109375,-0.5699372887611389,0.7257078886032104,0.1411098688840866
1773200118920914400,10.34791455078125,-0.513126790523529,0.48258355259895325,0.2382374405860901
1773200118936909000,10.363908935546876,-0.48869219422340393,0.16065755486488342,0.24556782841682434
1773200118952897300,10.379897216796875,-0.36529740691185,-0.15515977144241333,0.26572638750076294
1773200118968889300,10.395889404296875,-0.11423180252313614,-0.34208452701568604,0.3084869384765625
1773200118984909800,10.411909912109374,0.2064724564552307,-0.44654250144958496,0.3689626157283783
1773200119000901000,10.427901123046874,0.41599923372268677,-0.4795292317867279,0.46242499351501465
1773200119016894000,10.44389404296875,0.5002986192703247,-0.3701843321323395,0.6200281977653503
1773200119032915500,10.45991552734375,0.5326744914054871,-0.19364428520202637,0.79840087890625
1773200119048907000,10.475906982421876,0.53328537940979,-0.00366519158706069,0.9468411207199097
1773200119064898600,10.491898681640626,0.5106833577156067,0.18936823308467865,1.062294602394104
1773200119076892400,10.503892333984375,0.49846604466438293,0.32559117674827576,1.1239920854568481
1773200119088915500,10.51591552734375,0.5027421116828918,0.44593164324760437,1.1533136367797852
1773200119104907000,10.531906982421875,0.5149593949317932,0.5552765130996704,1.147204875946045
1773200119120896800,10.547896728515624,0.5265658497810364,0.5723807215690613,1.1252137422561646
1773200119136889600,10.5638896484375,0.5167919993400574,0.5210680365562439,1.1258246898651123
1773200119152909600,10.57990966796875,0.503963828086853,0.4447098970413208,1.1679743528366089
1773200119168899800,10.59589990234375,0.5247332453727722,0.40133845806121826,1.2223412990570068
1773200119184893000,10.611892822265625,0.5650503635406494,0.38606682419776917,1.2315043210983276
1773200119200915200,10.627915283203125,0.6646214127540588,0.41233405470848083,1.1936306953430176
1773200119216907300,10.6439072265625,0.7183775305747986,0.4306600093841553,1.1020009517669678
1773200119232897800,10.659897705078125,0.6866125464439392,0.4178318381309509,0.9560040831565857
1773200119248886800,10.67588671875,0.5711590051651001,0.3701843321323395,0.7635815739631653
1773200119264908800,10.69190869140625,0.3787364661693573,0.34086281061172485,0.523511528968811
1773200119280902000,10.70790185546875,0.22357667982578278,0.3488040566444397,0.342695415019989
1773200119296892700,10.723892578125,0.07330382615327835,0.31520646810531616,0.13866640627384186
1773200119312913000,10.739912841796874,-0.048258353024721146,0.22846360504627228,-0.08002334833145142
1773200119324908500,10.751908447265626,-0.12828169763088226,0.14844025671482086,-0.2217440903186798
1773200119336902000,10.76390185546875,-0.2272418737411499,0.07330382615327835,-0.3878994286060333
1773200119352894000,10.77989404296875,-0.3500257730484009,-0.04459316283464432,-0.6188064813613892
1773200119368913000,10.795912841796875,-0.43676865100860596,-0.16920967400074005,-0.8216137290000916
1773200119384905000,10.811905029296875,-0.49357911944389343,-0.2577851414680481,-0.9706648588180542
1773200119400896300,10.827896240234375,-0.5186246037483215,-0.3084869384765625,-1.026253581047058
1773200119416942600,10.843942626953124,-0.5155702829360962,-0.2840523421764374,-0.941343367099762
1773200119432933400,10.859933349609374,-0.4196644127368927,-0.18020524084568024,-0.7568620443344116
1773200119448923000,10.8759228515625,-0.16493362188339233,-0.05864306539297104,-0.5742133259773254
1773200119464914200,10.8919140625,0.15332718193531036,0.056810468435287476,-0.41111230850219727
1773200119476940300,10.903940185546874,0.34147366881370544,0.16004669666290283,-0.25595253705978394
1773200119488932000,10.91593212890625,0.4434881806373596,0.303600013256073,-0.07513642311096191
1773200119504924700,10.931924560546875,0.4691445231437683,0.4660901725292206,0.11972958594560623
1773200119520914200,10.9479140625,0.42271876335144043,0.5326744914054871,0.18448130786418915
1773200119536938000,10.96393798828125,0.39767327904701233,0.5357288122177124,0.15760323405265808
1773200119552926700,10.9799267578125,0.47708576917648315,0.48808133602142334,0.06291911751031876
1773200119568918300,10.995918212890626,0.5717698931694031,0.36102136969566345,-0.08368854224681854
1773200119584939800,11.011939697265625,0.5992587804794312,0.182648703455925,-0.26022860407829285
1773200119600931300,11.027931396484375,0.5522221922874451,-0.03726277872920036,-0.40683624148368835
1773200119616924000,11.043923828125,0.4239404797554016,-0.2541199326515198,-0.5265658497810364
1773200119632914000,11.059913818359375,0.26939156651496887,-0.4282165467739105,-0.5442809462547302
1773200119648937700,11.075937744140624,0.15515977144241333,-0.46792277693748474,-0.33108896017074585
1773200119664928500,11.091928466796874,0.11545353382825851,-0.3793473243713379,0.054367005825042725
1773200119680918800,11.107918701171876,0.11239920556545258,-0.17348572611808777,0.5198463201522827
1773200119696941000,11.123941162109375,0.1417207419872284,0.12339477986097336,0.9975429177284241
1773200119712933600,11.13993359375,0.16920967400074005,0.4703662395477295,1.3518447875976562
1773200119728922600,11.155922607421875,0.16371189057826996,0.7348709106445312,1.4501941204071045
1773200119744914700,11.171914794921875,0.12828169763088226,0.8546004891395569,1.3365731239318848
1773200119760936200,11.187936279296874,0.07452555745840073,0.8362745046615601,1.06351637840271
1773200119776927700,11.203927734375,0.007941247895359993,0.6817256212234497,0.6927211880683899
1773200119792919000,11.2199189453125,-0.03298672288656235,0.44776421785354614,0.3029891550540924
1773200119808939000,11.23593896484375,-0.05864306539297104,0.16737708449363708,-0.025045474991202354
1773200119824931300,11.251931396484375,-0.08552113175392151,-0.10323622822761536,-0.2669481039047241
1773200119840920800,11.2679208984375,-0.11362093687057495,-0.28588494658470154,-0.41111230850219727
1773200119856914200,11.2839140625,-0.1612684279680252,-0.39645153284072876,-0.45692721009254456
1773200119872934400,11.299934326171876,-0.20891591906547546,-0.4349360466003418,-0.43249258399009705
1773200119888927500,11.315927490234374,-0.2687807083129883,-0.38117989897727966,-0.3188716471195221
1773200119904918300,11.331918212890624,-0.32070425152778625,-0.29016098380088806,-0.1618792861700058
1773200119920938500,11.3479384765625,-0.3640756905078888,-0.20830504596233368,-0.028099801391363144
1773200119936932900,11.363932861328125,-0.394618958234787,-0.15882496535778046,0.10201449692249298
1773200119952922600,11.379922607421875,-0.40072759985923767,-0.10567969083786011,0.27122417092323303
1773200119968912100,11.395912109375,-0.3689626157283783,-0.013439035043120384,0.4948008358478546
1773200119984934400,11.411934326171876,-0.29016098380088806,0.07696902006864548,0.7031059265136719
1773200120000926200,11.42792626953125,-0.15943582355976105,0.13744467496871948,0.8234463334083557
1773200120016919600,11.44391943359375,-0.04886921867728233,0.20097467303276062,0.8228355050086975
1773200120032938200,11.459938232421875,0.0012217304902151227,0.1973094791173935,0.7067710757255554
1773200120048931600,11.475931640625,-0.010995574295520782,0.0507018156349659,0.47769662737846375
1773200120064920300,11.49192041015625,-0.10323622822761536,-0.09162978827953339,0.23273965716362
1773200120080911600,11.50791162109375,-0.22540926933288574,-0.17287486791610718,0.05742133408784866
1773200120096936200,11.523936279296874,-0.27977627515792847,-0.15760323405265808,-0.02932153269648552
1773200120112926200,11.53992626953125,-0.21502456068992615,-0.051312681287527084,-0.028099801391363144
1773200120128916000,11.555916015625,-0.04214970022439957,0.14782938361167908,0.02321287989616394
1773200120144938200,11.571938232421875,0.18570303916931152,0.3500257730484009,0.08246681094169617
1773200120160928800,11.5879287109375,0.3799581825733185,0.4398229718208313,0.13988813757896423
1773200120176922600,11.603922607421875,0.49357911944389343,0.43737950921058655,0.1820378452539444
1773200120192943400,11.619943359375,0.5461135506629944,0.3927863538265228,0.1966986060142517
1773200120208933000,11.63593310546875,0.5455026626586914,0.313373863697052,0.1362229436635971
1773200120224925000,11.651925048828126,0.5057964324951172,0.22968533635139465,-0.003054326167330146
1773200120240915700,11.667915771484376,0.4599815309047699,0.1514945775270462,-0.19608774781227112
1773200120256939300,11.683939208984375,0.40194934606552124,0.06780604273080826,-0.43799036741256714
1773200120272929000,11.699928955078125,0.30604347586631775,-0.04337143152952194,-0.665232241153717
1773200120288920000,11.715920166015625,0.1820378452539444,-0.14844025671482086,-0.7935139536857605
1773200120304912000,11.731911865234375,0.051312681287527084,-0.2015855312347412,-0.8045095205307007
1773200120320932900,11.747932861328126,-0.04581489413976669,-0.2021963894367218,-0.7024950385093689
1773200120336927200,11.76392724609375,-0.11728613078594208,-0.1411098688840866,-0.5192354321479797
1773200120352916500,11.77991650390625,-0.17348572611808777,-0.054367005825042725,-0.24862214922904968
1773200120368938800,11.795938720703125,-0.2125810980796814,0.01710422709584236,0.08552113175392151
1773200120384927500,11.811927490234375,-0.19853121042251587,0.15027284622192383,0.4660901725292206
1773200120400919300,11.827919189453125,-0.07941248267889023,0.36102136969566345,0.8142833709716797
1773200120416944600,11.843944580078125,0.12767083942890167,0.5393940210342407,1.0213667154312134
1773200120432934400,11.859934326171874,0.2840523421764374,0.5962044596672058,1.0305296182632446
1773200120448925400,11.875925537109374,0.3188716471195221,0.5320636034011841,0.9089674949645996
1773200120464916200,11.891916259765624,0.2168571650981903,0.40256020426750183,0.7513642311096191
1773200120480936700,11.907936767578125,0.059864792972803116,0.27977627515792847,0.6157521605491638
1773200120496929300,11.92392919921875,-0.06719517707824707,0.20036379992961884,0.5057964324951172
1773200120512920300,11.93992041015625,-0.12828169763088226,0.14966198801994324,0.4031710624694824
1773200120528942000,11.955942138671874,-0.16798794269561768,0.15454891324043274,0.32009339332580566
1773200120544932000,11.97193212890625,-0.24373523890972137,0.19425514340400696,0.28466320037841797
1773200120560925000,11.987925048828124,-0.36102136969566345,0.22540926933288574,0.2993239760398865
1773200120576916700,12.003916748046874,-0.4862487316131592,0.25595253705978394,0.3842342495918274
1773200120592936200,12.019936279296875,-0.5528330206871033,0.323147714138031,0.5210680365562439
1773200120608928800,12.0359287109375,-0.5418374538421631,0.39584067463874817,0.6579018831253052
1773200120624919800,12.051919921875,-0.4746423065662384,0.4990769028663635,0.7238753437995911
1773200120640940800,12.06794091796875,-0.4105014503002167,0.5839871764183044,0.7012733221054077
1773200120656934100,12.08393408203125,-0.4086688458919525,0.6023131608963013,0.5949827432632446
1773200120672925700,12.09992578125,-0.4434881806373596,0.5827654600143433,0.4660901725292206
1773200120688915200,12.115915283203124,-0.46303585171699524,0.5485569834709167,0.3488040566444397
1773200120704937000,12.13193701171875,-0.4343251883983612,0.39767327904701233,0.1820378452539444
1773200120720927700,12.147927734375,-0.3585779070854187,0.18020524084568024,-0.018325956538319588
1773200120736919000,12.1639189453125,-0.2370157092809677,0.09773843735456467,-0.192422553896904
1773200120752940000,12.17993994140625,-0.13377949595451355,0.06719517707824707,-0.37140607833862305
1773200120768932000,12.19593212890625,-0.10262536257505417,0.025656340643763542,-0.5937610268592834
1773200120780926200,12.20792626953125,-0.1014036312699318,0.02687807008624077,-0.7312057018280029
1773200120792921000,12.219921142578125,-0.09162978827953339,0.048258353024721146,-0.8252789378166199
1773200120808941000,12.235941162109375,-0.0507018156349659,0.02871066704392433,-0.9071348905563354
1773200120824933000,12.25193310546875,0.06658431142568588,0.001832595793530345,-0.8869763612747192
1773200120840925000,12.267925048828126,0.303600013256073,0.004886921960860491,-0.7348709106445312
1773200120856914700,12.283914794921875,0.6829473376274109,0.0555887371301651,-0.48869219422340393
1773200120872935200,12.29993505859375,1.037249207496643,0.11484266817569733,-0.23335053026676178
1773200120888927500,12.315927490234374,1.2107349634170532,0.15515977144241333,-0.021991148591041565
1773200120904919800,12.331919921875,1.225395679473877,0.2125810980796814,0.16554448008537292
1773200120920940300,12.347940185546875,1.129489779472351,0.313373863697052,0.3078760802745819
1773200120936933000,12.36393310546875,0.970054030418396,0.3933972120285034,0.3494149148464203
1773200120952922000,12.379922119140625,0.8124507665634155,0.3995058834552765,0.3127630054950714
1773200120968913000,12.395912841796875,0.6951646208763123,0.3023782968521118,0.23151792585849762
1773200120984934400,12.411934326171876,0.5919284224510193,0.14477506279945374,0.15943582355976105
1773200121000927500,12.427927490234374,0.43127086758613586,-0.01466076634824276,0.13255776464939117
1773200121016919300,12.443919189453124,0.21624629199504852,-0.033597588539123535,0.24617868661880493
1773200121032940800,12.45994091796875,0.04337143152952194,0.1411098688840866,0.53328537940979
1773200121048931600,12.475931640625,-0.03176499158143997,0.34697145223617554,0.8820894360542297
1773200121064921000,12.491921142578125,-0.06902777403593063,0.5143485069274902,1.1533136367797852
1773200121080913700,12.50791357421875,-0.10201449692249298,0.6285803318023682,1.3182471990585327
1773200121096936400,12.5239365234375,-0.11239920556545258,0.7049384713172913,1.3897184133529663
1773200121112925400,12.539925537109376,-0.08552113175392151,0.7275404930114746,1.32863187789917
1773200121128918500,12.55591845703125,-0.08124507963657379,0.6475171446800232,1.1374311447143555
1773200121144938500,12.5719384765625,-0.13561208546161652,0.4709770977497101,0.8723155856132507
1773200121160930600,12.5879306640625,-0.1973094791173935,0.2730567753314972,0.6096435189247131
1773200121176924000,12.603923828125,-0.1820378452539444,0.14966198801994324,0.4508185386657715
1773200121192912100,12.619912109375,-0.14966198801994324,0.11423180252313614,0.4251621961593628
1773200121208935200,12.63593505859375,-0.16004669666290283,0.1007927656173706,0.46181413531303406
1773200121224925700,12.65192578125,-0.19608774781227112,0.10445795953273773,0.5314527750015259
1773200121240917000,12.6679169921875,-0.22479841113090515,0.12461651116609573,0.6017022728919983
1773200121256939300,12.683939208984375,-0.22663100063800812,0.13744467496871948,0.6414085030555725
1773200121272930000,12.699929931640625,-0.23151792585849762,0.1612684279680252,0.6536257863044739
1773200121288920800,12.7159208984375,-0.20830504596233368,0.17959438264369965,0.6633996367454529
1773200121304913400,12.731913330078125,-0.1667662113904953,0.17592918872833252,0.6591235995292664
1773200121320935000,12.747934814453124,-0.12217304855585098,0.1612684279680252,0.6640105247497559
1773200121336927200,12.76392724609375,-0.05314527451992035,0.1319468915462494,0.655458390712738
1773200121352916000,12.779916015625,0.033597588539123535,0.07757988572120667,0.598647952079773
1773200121368938800,12.795938720703125,0.1270599663257599,-0.015271631069481373,0.504574716091156
1773200121384930600,12.8119306640625,0.18081611394882202,-0.14416420459747314,0.38606682419776917
1773200121400920600,12.827920654296875,0.14294247329235077,-0.1966986060142517,0.2730567753314972
1773200121416944600,12.843944580078125,0.06902777403593063,-0.11484266817569733,0.21624629199504852
1773200121432934400,12.859934326171874,0.007941247895359993,0.0555887371301651,0.1716531366109848
1773200121448924700,12.875924560546874,0.031154127791523933,0.24984388053417206,0.11728613078594208
1773200121464917200,12.891917236328124,0.14355333149433136,0.394618958234787,0.06230825558304787
1773200121480938500,12.9079384765625,0.294437050819397,0.46670106053352356,0.03237585723400116
1773200121496931600,12.923931640625,0.4612032473087311,0.4807509481906891,0.07147123664617538
1773200121512921600,12.939921630859375,0.6261368989944458,0.44287729263305664,0.18020524084568024
1773200121528942000,12.955942138671874,0.740368664264679,0.38240164518356323,0.29626965522766113
1773200121544934700,12.9719345703125,0.7422012686729431,0.3078760802745819,0.31154128909111023
1773200121560925400,12.987925537109374,0.645684540271759,0.2718350291252136,0.24129177629947662
1773200121576917000,13.0039169921875,0.5149593949317932,0.24678955972194672,0.09346238523721695
1773200121592937200,13.019937255859375,0.38728857040405273,0.2431243658065796,-0.06780604273080826
1773200121608928300,13.03592822265625,0.23396138846874237,0.23945917189121246,-0.21013765037059784
1773200121624920300,13.05192041015625,0.05497787147760391,0.2168571650981903,-0.31031954288482666
1773200121640943900,13.06794384765625,-0.10567969083786011,0.1716531366109848,-0.3549126982688904
1773200121656934000,13.083933837890624,-0.18387043476104736,0.1459967941045761,-0.3023782968521118
1773200121672923000,13.0999228515625,-0.23396138846874237,0.13561208546161652,-0.1319468915462494
1773200121688914400,13.11591455078125,-0.3078760802745819,0.11789698898792267,0.15332718193531036
1773200121704936400,13.1319365234375,-0.3988949954509735,0.1417207419872284,0.5229006409645081
1773200121720927700,13.147927734375,-0.3995058834552765,0.32131510972976685,0.8570439219474792
1773200121736919800,13.163919921875,-0.16737708449363708,0.5357288122177124,1.0421360731124878
1773200121752942000,13.179942138671874,0.11789698898792267,0.675006091594696,1.0403034687042236
1773200121768933400,13.195933349609374,0.18875735998153687,0.6707300543785095,0.9101892113685608
1773200121784923400,13.21192333984375,0.07208210229873657,0.6004805564880371,0.770301103591919
1773200121800916700,13.227916748046875,-0.08124507963657379,0.4954117238521576,0.6603453159332275
1773200121816939000,13.24393896484375,-0.1814269721508026,0.41172316670417786,0.588263213634491
1773200121832927200,13.25992724609375,-0.21074850857257843,0.38179078698158264,0.5510004758834839
1773200121848919800,13.275919921875,-0.23151792585849762,0.3982841372489929,0.5241223573684692
1773200121864942000,13.291942138671875,-0.2926044464111328,0.3952298164367676,0.5143485069274902
1773200121880932600,13.3079326171875,-0.375071257352829,0.3793473243713379,0.5455026626586914
1773200121896925000,13.323925048828125,-0.4343251883983612,0.4184426963329315,0.6542366743087769
1773200121912913200,13.3399130859375,-0.4343251883983612,0.485027015209198,0.8093964457511902
1773200121928936700,13.355936767578125,-0.37690386176109314,0.5693264007568359,0.9364564418792725
1773200121944927700,13.371927734375,-0.3023782968521118,0.6792821288108826,0.9944885969161987
1773200121960919000,13.3879189453125,-0.21502456068992615,0.7776314616203308,0.9450085163116455
1773200121976941300,13.40394140625,-0.13255776464939117,0.8014551997184753,0.7678576111793518
1773200121992931600,13.419931640625,-0.0659734457731247,0.7550294399261475,0.5216789245605469
1773200122008922400,13.43592236328125,-0.0006108652451075613,0.66584312915802,0.2583959996700287
1773200122024915000,13.4519150390625,0.04337143152952194,0.5149593949317932,-0.0403171069920063
1773200122040935400,13.467935302734375,0.07819075137376785,0.32131510972976685,-0.32620203495025635
1773200122056929000,13.483928955078126,0.0861319974064827,0.13500121235847473,-0.5717698931694031
1773200122072918800,13.499918701171875,0.09896016865968704,-0.056810468435287476,-0.7476990818977356
1773200122088941000,13.515941162109375,0.1508837193250656,-0.20891591906547546,-0.7904596328735352
1773200122104931300,13.531931396484374,0.3243694305419922,-0.2571742534637451,-0.6542366743087769
1773200122120921300,13.54792138671875,0.6279694437980652,-0.21074850857257843,-0.4147774875164032
1773200122136945400,13.5639453125,0.940121591091156,-0.12889257073402405,-0.14538592100143433
1773200122152935000,13.579934814453125,1.1020009517669678,-0.018325956538319588,0.10018189996480942
1773200122168926000,13.595926025390625,1.160033106803894,0.1062905490398407,0.3188716471195221
1773200122184918500,13.61191845703125,1.1227703094482422,0.24984388053417206,0.4703662395477295
1773200122200939000,13.62793896484375,1.0421360731124878,0.3885102868080139,0.5247332453727722
1773200122216932900,13.643932861328125,0.9663888216018677,0.4306600093841553,0.4862487316131592
1773200122232924000,13.659923828125,0.8747590184211731,0.32986724376678467,0.3805690407752991
1773200122248915000,13.6759150390625,0.7464773058891296,0.1661553531885147,0.294437050819397
1773200122264934000,13.691933837890625,0.5931501388549805,0.03787364438176155,0.28466320037841797
1773200122280925700,13.70792578125,0.4251621961593628,0.013439035043120384,0.33597588539123535
1773200122296918800,13.723918701171876,0.31459560990333557,0.059864792972803116,0.48685958981513977
1773200122312939000,13.73993896484375,0.30970868468284607,0.18448130786418915,0.7648032903671265
1773200122328930800,13.755930908203124,0.32986724376678467,0.3952298164367676,1.0219775438308716
1773200122344922600,13.771922607421875,0.3292563557624817,0.5644394755363464,1.0989465713500977
1773200122360912000,13.787911865234374,0.2840523421764374,0.6151412725448608,0.9908234477043152
1773200122376935000,13.803934814453125,0.1765400618314743,0.5552765130996704,0.769079327583313
1773200122392924400,13.81992431640625,0.051312681287527084,0.41722095012664795,0.4862487316131592
1773200122408918000,13.83591796875,-0.07147123664617538,0.252287358045578,0.21930062770843506
1773200122424938000,13.85193798828125,-0.16798794269561768,0.10201449692249298,0.01160643994808197
1773200122440930300,13.867930419921874,-0.23945917189121246,-0.0024434609804302454,-0.11178833991289139
1773200122456921900,13.883921875,-0.2883284091949463,-0.07208210229873657,-0.15393804013729095
1773200122472943400,13.899943359375,-0.36163222789764404,-0.10201449692249298,-0.08491026610136032
1773200122488934700,13.9159345703125,-0.4440990388393402,-0.08857546001672745,0.06352998316287994
1773200122504926700,13.9319267578125,-0.5015203952789307,-0.08124507963657379,0.2217440903186798
1773200122520915700,13.947915771484375,-0.5485569834709167,-0.0910189226269722,0.3396410644054413
1773200122536938000,13.96393798828125,-0.5729916095733643,-0.06658431142568588,0.43188172578811646
1773200122552929000,13.979928955078124,-0.5772676467895508,-0.018936822190880775,0.5021312236785889
1773200122568919800,13.995919921875,-0.5650503635406494,0.025045474991202354,0.5088507533073425
1773200122584943400,14.011943359375,-0.5607742667198181,0.030543262138962746,0.48869219422340393
1773200122600932900,14.027932861328125,-0.5577199459075928,0.018325956538319588,0.4862487316131592
1773200122616925700,14.04392578125,-0.5436700582504272,-0.02015855349600315,0.45204028487205505
1773200122632915500,14.05991552734375,-0.49785518646240234,-0.036651913076639175,0.4612032473087311
1773200122648938800,14.075938720703125,-0.42638394236564636,-0.036651913076639175,0.4899139404296875
1773200122664929800,14.0919296875,-0.3396410644054413,-0.0012217304902151227,0.503963828086853
1773200122680919800,14.107919921875,-0.29626965522766113,-0.004886921960860491,0.47769662737846375
1773200122696942300,14.1239423828125,-0.3341432809829712,-0.06780604273080826,0.39645153284072876
1773200122712935200,14.13993505859375,-0.3988949954509735,-0.06902777403593063,0.31093040108680725
1773200122728926500,14.155926513671876,-0.375071257352829,0.0006108652451075613,0.2064724564552307
1773200122744917000,14.1719169921875,-0.2376265823841095,0.1215621829032898,0.06902777403593063
1773200122760937200,14.187937255859374,-0.04214970022439957,0.16310101747512817,-0.03481931984424591
1773200122776929500,14.203929443359375,0.13377949595451355,0.09834930300712585,-0.024434609338641167
1773200122792920600,14.219920654296875,0.3225368559360504,0.04398229718208313,0.12889257073402405
1773200122808940500,14.2359404296875,0.5711590051651001,0.039706241339445114,0.30604347586631775
1773200122824932400,14.251932373046875,0.7916813492774963,0.05314527451992035,0.40256020426750183
1773200122840923100,14.267923095703125,0.8576548099517822,0.10384709388017654,0.35552358627319336
1773200122856916500,14.28391650390625,0.8130616545677185,0.1508837193250656,0.1771509200334549
1773200122872938800,14.299938720703125,0.7257078886032104,0.15271630883216858,-0.09468411654233932
1773200122888928500,14.315928466796874,0.6200281977653503,0.0806342139840126,-0.3933972120285034
1773200122904918500,14.33191845703125,0.49785518646240234,-0.00855211354792118,-0.636521577835083
1773200122920940500,14.3479404296875,0.40256020426750183,-0.09529497474431992,-0.7953465580940247
1773200122936934400,14.363934326171876,0.323147714138031,-0.16737708449363708,-0.8399397134780884
1773200122952924700,14.379924560546876,0.2174680233001709,-0.20952677726745605,-0.7721336483955383
1773200122968916700,14.395916748046876,0.11728613078594208,-0.19303341209888458,-0.5821545720100403
1773200122984935700,14.411935791015624,0.0507018156349659,-0.1014036312699318,-0.30054569244384766
1773200123000928000,14.427927978515624,0.05497787147760391,0.022602014243602753,0.03726277872920036
1773200123016920600,14.443920654296875,0.13255776464939117,0.1661553531885147,0.42638394236564636
1773200123032941800,14.45994189453125,0.22968533635139465,0.27611109614372253,0.8191702961921692
1773200123048933400,14.475933349609376,0.2773328125476837,0.35063666105270386,1.1349875926971436
1773200123064922000,14.491922119140625,0.2987131178379059,0.42760565876960754,1.3463469743728638
1773200123080914000,14.507913818359375,0.31581732630729675,0.47769662737846375,1.4178181886672974
1773200123096938000,14.52393798828125,0.34147366881370544,0.48197266459465027,1.320690631866455
1773200123112928300,14.53992822265625,0.3591887652873993,0.4349360466003418,1.0726794004440308
1773200123128918300,14.555918212890624,0.3194825351238251,0.33292156457901,0.7318165898323059
1773200123144941300,14.57194140625,0.1869247704744339,0.20525072515010834,0.3646865487098694
1773200123160930800,14.587930908203125,0.014049900695681572,0.08429940044879913,0.0403171069920063
1773200123176925700,14.60392578125,-0.12950342893600464,-0.01038470957428217,-0.20586158335208893
1773200123196942800,14.62394287109375,-0.22113321721553802,-0.07513642311096191,-0.33536502718925476
1773200123208936400,14.6359365234375,-0.2431243658065796,-0.06108652427792549,-0.3139847218990326
1773200123220931600,14.647931640625,-0.252287358045578,-0.015882495790719986,-0.2272418737411499
1773200123232922400,14.65992236328125,-0.2785545587539673,0.04214970022439957,-0.10995574295520782
1773200123248945200,14.675945068359376,-0.3390302062034607,0.12339477986097336,0.05497787147760391
1773200123264935000,14.691934814453125,-0.3952298164367676,0.20952677726745605,0.19914206862449646
1773200123280926200,14.70792626953125,-0.4337143301963806,0.2871066629886627,0.29138273000717163
1773200123296919600,14.72391943359375,-0.4538728892803192,0.3585779070854187,0.32131510972976685
1773200123312940500,14.7399404296875,-0.4343251883983612,0.4196644127368927,0.28099802136421204
1773200123328932400,14.755932373046875,-0.42699480056762695,0.43737950921058655,0.16493362188339233
1773200123344923000,14.7719228515625,-0.45692721009254456,0.4001167416572571,0.010995574295520782
1773200123360913400,14.787913330078124,-0.49846604466438293,0.3597996234893799,-0.10812314599752426
1773200123376936400,14.8039365234375,-0.5259549617767334,0.3396410644054413,-0.16859880089759827
1773200123392927000,14.819927001953126,-0.5229006409645081,0.3090978264808655,-0.192422553896904
1773200123404920300,14.83192041015625,-0.5027421116828918,0.31154128909111023,-0.17776179313659668
1773200123416946200,14.8439462890625,-0.46364670991897583,0.3323107063770294,-0.16371189057826996
1773200123432935400,14.859935302734375,-0.35674530267715454,0.38240164518356323,-0.13744467496871948
1773200123448926700,14.8759267578125,-0.22968533635139465,0.4306600093841553,-0.11239920556545258
1773200123464918300,14.891918212890625,-0.152105450630188,0.4251621961593628,-0.13255776464939117
1773200123480940300,14.907940185546876,-0.11850785464048386,0.3646865487098694,-0.182648703455925
1773200123496930800,14.923930908203126,-0.09651670604944229,0.30482175946235657,-0.2376265823841095
1773200123512922400,14.93992236328125,-0.07330382615327835,0.26633724570274353,-0.26450464129447937
1773200123528943600,14.955943603515625,-0.031154127791523933,0.2541199326515198,-0.28649580478668213
1773200123544935000,14.971934814453125,-0.009773843921720982,0.24373523890972137,-0.30054569244384766
1773200123560925200,14.98792529296875,-0.005497787147760391,0.2382374405860901,-0.2974913716316223
1773200123576917200,15.003917236328125,0.006719517521560192,0.2119702398777008,-0.28588494658470154
1773200123592938000,15.01993798828125,0.028099801391363144,0.2015855312347412,-0.2590068578720093
1773200123608929000,15.035928955078125,0.04703662544488907,0.21319197118282318,-0.21868975460529327
1773200123624920600,15.051920654296875,0.06414084881544113,0.21930062770843506,-0.22663100063800812
1773200123640913400,15.067913330078126,0.09285151958465576,0.1765400618314743,-0.2620611786842346
1773200123656936200,15.083936279296875,0.12339477986097336,0.12461651116609573,-0.32009339332580566
1773200123672925700,15.09992578125,0.16859880089759827,0.05375614017248154,-0.38667771220207214
1773200123688916700,15.115916748046875,0.21441370248794556,-0.060475658625364304,-0.4758640229701996
1773200123704938800,15.131938720703126,0.2773328125476837,-0.2021963894367218,-0.6285803318023682
1773200123720929300,15.14792919921875,0.3029891550540924,-0.34147366881370544,-0.7367035150527954
1773200123736922600,15.163922607421876,0.2871066629886627,-0.36163222789764404,-0.7012733221054077
1773200123752942300,15.1799423828125,0.24556782841682434,-0.3066543638706207,-0.5192354321479797
1773200123768933000,15.19593310546875,0.24068090319633484,-0.21074850857257843,-0.2382374405860901
1773200123784925700,15.21192578125,0.3084869384765625,-0.09896016865968704,0.15882496535778046
1773200123800916500,15.22791650390625,0.38667771220207214,-0.07635815441608429,0.5448917746543884
1773200123816938000,15.24393798828125,0.41233405470848083,-0.06902777403593063,0.8429940342903137
1773200123832928800,15.2599287109375,0.3677408695220947,-0.01466076634824276,1.043968677520752
1773200123848921600,15.275921630859376,0.3078760802745819,0.0806342139840126,1.1716395616531372
1773200123864944000,15.291944091796875,0.26939156651496887,0.2382374405860901,1.2406673431396484
1773200123880932600,15.3079326171875,0.26145032048225403,0.39767327904701233,1.2046263217926025
1773200123896926200,15.32392626953125,0.24129177629947662,0.4386012554168701,1.0848966836929321
1773200123912917800,15.339917724609375,0.20402899384498596,0.384845107793808,0.9382890462875366
1773200123928938200,15.355938232421876,0.15577064454555511,0.2730567753314972,0.7415903806686401
1773200123944929500,15.371929443359376,0.12522737681865692,0.13072516024112701,0.5174028873443604
1773200123960919300,15.387919189453125,0.09407325088977814,0.01160643994808197,0.3243694305419922
1773200123976942800,15.40394287109375,0.06352998316287994,-0.05497787147760391,0.19914206862449646
1773200123992934000,15.419933837890625,0.030543262138962746,-0.06719517707824707,0.12767083942890167
1773200124008925200,15.43592529296875,0.01466076634824276,-0.03237585723400116,0.06719517707824707
1773200124024916200,15.451916259765625,-0.022602014243602753,0.036651913076639175,0.0012217304902151227
1773200124040936700,15.467936767578125,-0.08735372871160507,0.09712757170200348,-0.06902777403593063
1773200124056929800,15.4839296875,-0.15027284622192383,0.1459967941045761,-0.1258382350206375
1773200124072921600,15.499921630859374,-0.16920967400074005,0.17043140530586243,-0.15332718193531036
1773200124088941600,15.515941650390625,-0.18875735998153687,0.1411098688840866,-0.1563815027475357
1773200124104931600,15.531931640625,-0.2272418737411499,0.08552113175392151,-0.152105450630188
1773200124120924200,15.547924072265625,-0.2669481039047241,0.03420845419168472,-0.12828169763088226
1773200124136917000,15.5639169921875,-0.3029891550540924,0.00733038317412138,-0.07757988572120667
1773200124152938200,15.579938232421876,-0.31520646810531616,0.029932396486401558,-0.0024434609804302454
1773200124168928800,15.5959287109375,-0.313373863697052,0.06536258012056351,0.04886921867728233
1773200124184918300,15.611918212890625,-0.2932153046131134,0.0910189226269722,0.06230825558304787
1773200124200940000,15.62793994140625,-0.2687807083129883,0.060475658625364304,0.028099801391363144
1773200124216931800,15.643931884765625,-0.2535090744495392,-0.013439035043120384,-0.042760565876960754
1773200124232922600,15.659922607421874,-0.23457226157188416,-0.13072516024112701,-0.13011430203914642
1773200124248915500,15.67591552734375,-0.20463985204696655,-0.21624629199504852,-0.19120082259178162
1773200124264936400,15.6919365234375,-0.17104226350784302,-0.27061331272125244,-0.22907446324825287
1773200124276930600,15.7039306640625,-0.12767083942890167,-0.31642818450927734,-0.2724458873271942
1773200124288924700,15.715924560546876,-0.09346238523721695,-0.35185837745666504,-0.3292563557624817
1773200124304914200,15.7319140625,-0.051312681287527084,-0.4105014503002167,-0.4147774875164032
1773200124320935400,15.747935302734374,-0.06719517707824707,-0.4691445231437683,-0.46181413531303406
1773200124336927700,15.763927734375,-0.1313360333442688,-0.4948008358478546,-0.4434881806373596
1773200124352917500,15.77991748046875,-0.16798794269561768,-0.4050036668777466,-0.3292563557624817
1773200124368941300,15.79594140625,-0.10690141469240189,-0.21013765037059784,-0.14966198801994324
1773200124384931600,15.811931640625,0.07635815441608429,-0.05375614017248154,0.00733038317412138
1773200124400922400,15.82792236328125,0.3072652220726013,-0.00366519158706069,0.14844025671482086
1773200124416944600,15.843944580078125,0.5198463201522827,-0.04459316283464432,0.27061331272125244
1773200124432937700,15.859937744140625,0.6414085030555725,-0.09346238523721695,0.3646865487098694
1773200124448941300,15.87594140625,0.7079927921295166,-0.0861319974064827,0.413555771112442
1773200124464917500,15.89191748046875,0.7629706859588623,-0.03848451003432274,0.38240164518356323
1773200124480938800,15.907938720703125,0.7935139536857605,-0.021991148591041565,0.25473082065582275
1773200124496932900,15.923932861328124,0.7904596328735352,-0.03481931984424591,0.07024950534105301
1773200124512921600,15.939921630859375,0.7330383062362671,-0.05742133408784866,-0.14049901068210602
1773200124528945000,15.95594482421875,0.626747727394104,-0.08918632566928864,-0.3585779070854187
1773200124544934400,15.971934326171874,0.49357911944389343,-0.1319468915462494,-0.5094616413116455
1773200124560928000,15.987927978515625,0.3396410644054413,-0.1569923609495163,-0.5974262356758118
1773200124576918500,16.00391845703125,0.18509216606616974,-0.1569923609495163,-0.637132465839386
1773200124592940300,16.019940185546876,0.02687807008624077,-0.13011430203914642,-0.6065891981124878
1773200124608930000,16.035929931640624,-0.09651670604944229,-0.07024950534105301,-0.4813618063926697
1773200124624920800,16.0519208984375,-0.1814269721508026,-0.018325956538319588,-0.28099802136421204
1773200124640944400,16.0679443359375,-0.2174680233001709,0.0024434609804302454,0.0012217304902151227
1773200124656936700,16.083936767578123,-0.2174680233001709,0.02015855349600315,0.3640756905078888
1773200124672927200,16.09992724609375,-0.19975294172763824,0.030543262138962746,0.6902777552604675
1773200124688915500,16.11591552734375,-0.21441370248794556,0.028099801391363144,0.8607091307640076
1773200124704940000,16.13193994140625,-0.25534167885780334,0.031154127791523933,0.9053022861480713
1773200124720929300,16.14792919921875,-0.3194825351238251,0.09162978827953339,0.8765916228294373
1773200124736923600,16.163923583984374,-0.4288274049758911,0.16859880089759827,0.7806857824325562
1773200124752943900,16.17994384765625,-0.5766568183898926,0.24373523890972137,0.636521577835083
1773200124768933600,16.19593359375,-0.740368664264679,0.3225368559360504,0.4740314185619354
1773200124784925000,16.211925048828125,-0.8735373020172119,0.3781255781650543,0.30054569244384766
1773200124800917500,16.22791748046875,-0.9468411207199097,0.3830125033855438,0.1814269721508026
1773200124816938500,16.2439384765625,-1.0128145217895508,0.42149701714515686,0.17287486791610718
1773200124832930000,16.259929931640624,-1.053742527961731,0.47708576917648315,0.2626720666885376
1773200124848920300,16.27592041015625,-1.06351637840271,0.5497786998748779,0.39645153284072876
1773200124864941800,16.29194189453125,-1.0238101482391357,0.636521577835083,0.5296201705932617
1773200124880934100,16.30793408203125,-0.9187413454055786,0.7367035150527954,0.6432411074638367
1773200124896927000,16.323927001953123,-0.7715228199958801,0.8387179970741272,0.6908885836601257
1773200124912916200,16.339916259765626,-0.616973876953125,0.8741481900215149,0.6536257863044739
1773200124928939300,16.355939208984374,-0.48319441080093384,0.8973610401153564,0.5736024379730225
1773200124944930000,16.371929931640626,-0.38728857040405273,0.8967501521110535,0.4660901725292206
1773200124960919600,16.38791943359375,-0.3396410644054413,0.8051204085350037,0.3323107063770294
1773200124976944000,16.403944091796873,-0.2974913716316223,0.7061602473258972,0.20891591906547546
1773200124992932900,16.419932861328125,-0.2376265823841095,0.6218608021736145,0.1270599663257599
1773200125008923600,16.435923583984376,-0.18081611394882202,0.5473352670669556,0.05253441259264946
1773200125024948200,16.4519482421875,-0.11484266817569733,0.5057964324951172,0.01466076634824276
1773200125040936700,16.467936767578124,-0.029932396486401558,0.4862487316131592,0.012828170321881771
1773200125056929800,16.4839296875,0.08857546001672745,0.48685958981513977,0.05742133408784866
1773200125072921600,16.499921630859376,0.2064724564552307,0.5057964324951172,0.15577064454555511
1773200125088940800,16.51594091796875,0.3280346393585205,0.5357288122177124,0.251676470041275
1773200125104933600,16.53193359375,0.423329621553421,0.5760459303855896,0.2816088795661926
1773200125120923100,16.547923095703126,0.48197266459465027,0.5198463201522827,0.24556782841682434
1773200125136947200,16.563947265625,0.5540547966957092,0.394618958234787,0.18081611394882202
1773200125152937700,16.579937744140626,0.6133087277412415,0.2217440903186798,0.10934487730264664
1773200125168928000,16.595927978515626,0.6340781450271606,0.0659734457731247,0.029932396486401558
1773200125184918800,16.611918701171874,0.6133087277412415,-0.048258353024721146,-0.05253441259264946
1773200125200942300,16.6279423828125,0.5619960427284241,-0.07269296050071716,-0.04948008432984352
1773200125216933400,16.643933349609377,0.5167919993400574,0.025045474991202354,0.1111774742603302
1773200125232924700,16.659924560546877,0.6047565937042236,0.18814650177955627,0.37262779474258423
1773200125248914700,16.675914794921876,0.8283332586288452,0.2730567753314972,0.6530149579048157
1773200125264938500,16.6919384765625,1.0396926403045654,0.35124751925468445,0.9572258591651917
1773200125280927700,16.707927734375,1.1239920854568481,0.4550946056842804,1.2247848510742188
1773200125296921300,16.72392138671875,1.0897835493087769,0.4954117238521576,1.3377948999404907
1773200125312941000,16.739941162109375,1.026253581047058,0.4288274049758911,1.2986994981765747
1773200125328933000,16.75593310546875,0.9065240025520325,0.3787364661693573,1.1936306953430176
1773200125344924400,16.77192431640625,0.7648032903671265,0.36224308609962463,1.0903944969177246
1773200125360914700,16.787914794921875,0.6108652353286743,0.403781920671463,1.064738154411316
1773200125376937700,16.803937744140626,0.48197266459465027,0.5015203952789307,1.0751228332519531
1773200125392929800,16.8199296875,0.413555771112442,0.5839871764183044,1.149037480354309
1773200125408919300,16.835919189453126,0.3634648323059082,0.6530149579048157,1.321912407875061
1773200125424940000,16.85193994140625,0.32070425152778625,0.7629706859588623,1.4770721197128296
1773200125440931600,16.867931640625,0.3384193480014801,0.8741481900215149,1.5039502382278442
1773200125452926000,16.879926025390624,0.37262779474258423,0.8943067193031311,1.4086552858352661
1773200125464881000,16.891880859375,0.394618958234787,0.8649851679801941,1.238223910331726
1773200125480903000,16.90790283203125,0.3732386529445648,0.7819074988365173,0.940732479095459
1773200125496897000,16.92389697265625,0.29626965522766113,0.675006091594696,0.6395758986473083
1773200125512886500,16.939886474609374,0.2076941877603531,0.5461135506629944,0.34636059403419495
1773200125528906500,16.955906494140624,0.12095131725072861,0.4404338300228119,0.10384709388017654
1773200125544898600,16.971898681640624,0.06780604273080826,0.39217549562454224,-0.06963863968849182
1773200125560889900,16.987889892578124,0.039706241339445114,0.36651915311813354,-0.1875356286764145
1773200125576884000,17.003884033203125,0.01466076634824276,0.31459560990333557,-0.2724458873271942
1773200125592903400,17.0199033203125,-0.03787364438176155,0.24068090319633484,-0.3433062732219696
1773200125608895000,17.03589501953125,-0.08307767659425735,0.16432274878025055,-0.3640756905078888
1773200125624884500,17.051884521484375,-0.1313360333442688,0.08185594528913498,-0.3292563557624817
1773200125640908300,17.067908203125,-0.1918116807937622,-0.01160643994808197,-0.21807889640331268
1773200125656900600,17.083900634765627,-0.26511552929878235,-0.0757472887635231,-0.021380282938480377
1773200125672888600,17.099888671875,-0.3390302062034607,-0.0006108652451075613,0.26450464129447937
1773200125688881400,17.11588134765625,-0.39706242084503174,0.1814269721508026,0.5436700582504272
1773200125704903700,17.131903564453125,-0.42577308416366577,0.3078760802745819,0.6994407176971436
1773200125720892700,17.147892578125,-0.4239404797554016,0.3982841372489929,0.7709119319915771
1773200125736887600,17.163887451171874,-0.41111230850219727,0.41661009192466736,0.7929030656814575
1773200125752907000,17.179906982421876,-0.3793473243713379,0.36529740691185,0.7959573864936829
1773200125768899000,17.195899169921876,-0.33658674359321594,0.2565633952617645,0.7922922372817993
1773200125784890600,17.211890625,-0.2834414839744568,0.14844025671482086,0.7635815739631653
1773200125800881400,17.22788134765625,-0.21319197118282318,0.10384709388017654,0.7244861721992493
1773200125816904200,17.243904296875,-0.0910189226269722,0.08674286305904388,0.6542366743087769
1773200125832893400,17.2598935546875,0.056810468435287476,0.07941248267889023,0.5479460954666138
1773200125848885000,17.275885009765624,0.1875356286764145,0.07330382615327835,0.41172316670417786
1773200125864908000,17.291907958984375,0.2632829248905182,-0.014049900695681572,0.2675589919090271
1773200125880898600,17.307898681640626,0.27061331272125244,-0.15271630883216858,0.12461651116609573
1773200125896890400,17.323890380859375,0.16737708449363708,-0.2791654169559479,0.056810468435287476
1773200125912909300,17.339909423828125,0.06658431142568588,-0.26511552929878235,0.11789698898792267
1773200125928902000,17.35590185546875,0.14844025671482086,-0.05375614017248154,0.32070425152778625
1773200125944893700,17.371893798828125,0.413555771112442,0.2474004179239273,0.5198463201522827
1773200125960883000,17.387883056640625,0.685390830039978,0.42088615894317627,0.684779942035675
1773200125976905700,17.40390576171875,0.8301658630371094,0.44226643443107605,0.8191702961921692
1773200125992895700,17.419895751953124,0.8668177723884583,0.37201693654060364,0.9199630618095398
1773200126008888600,17.435888671875,0.8210029006004333,0.2816088795661926,0.9932668805122375
1773200126024879900,17.4518798828125,0.7049384713172913,0.2981022298336029,1.0305296182632446
1773200126040900600,17.467900634765623,0.5760459303855896,0.39217549562454224,0.9706648588180542
1773200126056893400,17.4838935546875,0.4813618063926697,0.5094616413116455,0.8142833709716797
1773200126072885500,17.499885498046876,0.38240164518356323,0.5968153476715088,0.5711590051651001
1773200126088904200,17.515904296875,0.2871066629886627,0.5766568183898926,0.2791654169559479
1773200126104896800,17.531896728515626,0.14844025671482086,0.4434881806373596,0.00366519158706069
1773200126120886300,17.54788623046875,-0.029932396486401558,0.24373523890972137,-0.14844025671482086
1773200126136880000,17.563880126953126,-0.17470745742321014,0.1264491081237793,-0.10445795953273773
1773200126152902000,17.57990185546875,-0.2632829248905182,0.08246681094169617,0.0806342139840126
1773200126168892200,17.59589208984375,-0.30482175946235657,0.08552113175392151,0.36529740691185
1773200126184883200,17.61188330078125,-0.30054569244384766,0.1618792861700058,0.7452555894851685
1773200126200904700,17.62790478515625,-0.2828305959701538,0.3066543638706207,1.1197160482406616
1773200126216896500,17.643896484375,-0.26145032048225403,0.46670106053352356,1.4001030921936035
1773200126232886000,17.659885986328124,-0.2278527319431305,0.5900958180427551,1.540602207183838
1773200126248878300,17.67587841796875,-0.16798794269561768,0.6591235995292664,1.522887110710144
1773200126264899600,17.691899658203123,-0.12095131725072861,0.6579018831253052,1.3585642576217651
1773200126280892400,17.707892333984375,-0.1160643994808197,0.6053674817085266,1.1099421977996826
1773200126296883700,17.7238837890625,-0.16004669666290283,0.5198463201522827,0.8552113175392151
1773200126312904700,17.73990478515625,-0.2321287989616394,0.394008070230484,0.6059783101081848
1773200126328895000,17.75589501953125,-0.2889392673969269,0.27061331272125244,0.39217549562454224
1773200126344886500,17.771886474609374,-0.3139847218990326,0.21868975460529327,0.2590068578720093
1773200126360879000,17.787879150390626,-0.31581732630729675,0.2382374405860901,0.20341812074184418
1773200126376900400,17.803900390625,-0.2687807083129883,0.2932153046131134,0.18020524084568024
1773200126392891600,17.8198916015625,-0.19486601650714874,0.3488040566444397,0.18570303916931152
1773200126408881200,17.835881103515625,-0.12767083942890167,0.4098905920982361,0.21380282938480377
1773200126424905000,17.851905029296876,-0.05925392732024193,0.45631635189056396,0.26022860407829285
1773200126440894000,17.86789404296875,-0.003054326167330146,0.4789183437824249,0.323147714138031
1773200126456886500,17.883886474609376,0.025045474991202354,0.475253164768219,0.3701843321323395
1773200126468910300,17.895910400390626,0.029932396486401558,0.46364670991897583,0.3683517575263977
1773200126480904000,17.907904052734374,0.016493361443281174,0.44287729263305664,0.3390302062034607
1773200126496896500,17.923896484375,-0.02382374368607998,0.4001167416572571,0.26511552929878235
1773200126512884700,17.939884765625,-0.04948008432984352,0.3793473243713379,0.2223549485206604
1773200126528906000,17.955906005859376,-0.04398229718208313,0.3988949954509735,0.20097467303276062
1773200126544898600,17.971898681640624,-0.01710422709584236,0.4056145250797272,0.1716531366109848
1773200126560890600,17.987890625,0.015882495790719986,0.43799036741256714,0.15393804013729095
1773200126576882400,18.00388232421875,0.05375614017248154,0.45753806829452515,0.13988813757896423
1773200126592903000,18.01990283203125,0.08735372871160507,0.4489859640598297,0.12217304855585098
1773200126608893000,18.035892822265627,0.11423180252313614,0.4355469346046448,0.08307767659425735
1773200126624885500,18.051885498046875,0.13439035415649414,0.39645153284072876,0.014049900695681572
1773200126640907500,18.067907470703126,0.15271630883216858,0.3488040566444397,-0.09285151958465576
1773200126656899000,18.083899169921875,0.17470745742321014,0.2834414839744568,-0.21624629199504852
1773200126672891100,18.09989111328125,0.18325957655906677,0.22663100063800812,-0.32070425152778625
1773200126688879600,18.115879638671874,0.21135938167572021,0.19608774781227112,-0.3732386529445648
1773200126704902000,18.13190185546875,0.28466320037841797,0.06780604273080826,-0.47708576917648315
1773200126720892400,18.147892333984377,0.294437050819397,-0.10751228034496307,-0.6298020482063293
1773200126736886300,18.16388623046875,0.2583959996700287,-0.22479841113090515,-0.7098253965377808
1773200126752906500,18.179906494140624,0.2535090744495392,-0.22296582162380219,-0.6352998614311218
1773200126768897500,18.1958974609375,0.31093040108680725,-0.15882496535778046,-0.4355469346046448
1773200126784887600,18.211887451171876,0.4392121136188507,-0.06536258012056351,-0.17531833052635193
1773200126800880600,18.227880615234376,0.5662720799446106,0.03176499158143997,0.11728613078594208
1773200126816902100,18.243902099609375,0.6230825781822205,0.07696902006864548,0.3219259977340698
1773200126832894200,18.259894287109375,0.5595525503158569,0.039095375686883926,0.3842342495918274
1773200126848884000,18.275884033203123,0.38728857040405273,-0.012217304669320583,0.3634648323059082
1773200126864905500,18.291905517578126,0.22113321721553802,-0.013439035043120384,0.3170390725135803
1773200126880896500,18.307896484375,0.0861319974064827,0.022602014243602753,0.27122417092323303
1773200126896888800,18.323888916015626,-0.03176499158143997,0.10751228034496307,0.2015855312347412
1773200126912881200,18.339881103515626,-0.11545353382825851,0.2217440903186798,0.09712757170200348
1773200126928902400,18.35590234375,-0.1514945775270462,0.3286454975605011,-0.025045474991202354
1773200126944891600,18.3718916015625,-0.10751228034496307,0.3585779070854187,-0.152105450630188
1773200126960882400,18.38788232421875,-0.04337143152952194,0.25595253705978394,-0.3121521472930908
1773200126976907500,18.403907470703125,-0.01710422709584236,0.06963863968849182,-0.49846604466438293
1773200126992896800,18.419896728515624,-0.018325956538319588,-0.08491026610136032,-0.6420193910598755
1773200127008887800,18.4358876953125,0.009162978269159794,-0.15760323405265808,-0.694553792476654
1773200127024877300,18.451877197265624,0.03176499158143997,-0.1612684279680252,-0.6976081132888794
1773200127040899800,18.46789990234375,0.033597588539123535,-0.14782938361167908,-0.6976081132888794
1773200127056893700,18.483893798828124,0.027488935738801956,-0.14233160018920898,-0.7367035150527954
1773200127072883200,18.49988330078125,0.02382374368607998,-0.1569923609495163,-0.8210029006004333
1773200127088903700,18.515903564453126,0.02626720629632473,-0.19608774781227112,-0.9388998746871948
1773200127100897300,18.527897216796877,0.018325956538319588,-0.22846360504627228,-1.0286970138549805
1773200127112891100,18.53989111328125,0.016493361443281174,-0.2577851414680481,-1.0989465713500977
1773200127128882000,18.5558818359375,0.009773843921720982,-0.3188716471195221,-1.186300277709961
1773200127144906000,18.571906005859375,-0.009162978269159794,-0.384845107793808,-1.2296717166900635
1773200127160895200,18.587895263671875,-0.031154127791523933,-0.42760565876960754,-1.226617455482483
1773200127176887000,18.603886962890623,-0.0555887371301651,-0.45204028487205505,-1.1954632997512817
1773200127192909800,18.619909912109375,-0.10201449692249298,-0.46853363513946533,-1.1545352935791016
1773200127208899800,18.63589990234375,-0.16737708449363708,-0.4660901725292206,-1.074512004852295
1773200127224892700,18.651892578125,-0.26083946228027344,-0.4282165467739105,-0.9541715383529663
1773200127240882200,18.667882080078126,-0.3597996234893799,-0.3799581825733185,-0.8429940342903137
1773200127256905500,18.683905517578125,-0.4392121136188507,-0.4001167416572571,-0.8350527882575989
1773200127272897000,18.69989697265625,-0.49724429845809937,-0.4502076804637909,-0.8943067193031311
1773200127288886000,18.715885986328125,-0.5516113042831421,-0.4996877610683441,-0.9388998746871948
1773200127304907000,18.731906982421876,-0.6224716901779175,-0.5283984541893005,-0.9633345007896423
1773200127316903000,18.74390283203125,-0.6811147332191467,-0.5467243790626526,-0.9590584635734558
1773200127328893200,18.75589306640625,-0.7220427393913269,-0.5528330206871033,-0.9462302923202515
1773200127344885000,18.771885009765626,-0.7354817390441895,-0.5510004758834839,-0.9743300676345825
1773200127360875500,18.78787548828125,-0.7055493593215942,-0.543059229850769,-1.0213667154312134
1773200127376900400,18.803900390625,-0.6688974499702454,-0.5589417219161987,-1.1099421977996826
1773200127392892000,18.819891845703125,-0.665232241153717,-0.6218608021736145,-1.2260065078735352
1773200127408880000,18.835880126953125,-0.6597344875335693,-0.7037167549133301,-1.3420709371566772
1773200127424903000,18.85190283203125,-0.6377432942390442,-0.7629706859588623,-1.4563027620315552
1773200127440893200,18.86789306640625,-0.5913175344467163,-0.8491026759147644,-1.5729780197143555
1773200127456886500,18.883886474609376,-0.5601634383201599,-0.9443976879119873,-1.6762142181396484
1773200127472863500,18.899863525390625,-0.5583308339118958,-1.0403034687042236,-1.7550158500671387
1773200127484902100,18.911902099609375,-0.5626068711280823,-1.122159481048584,-1.7788395881652832
1773200127496894200,18.923894287109373,-0.5772676467895508,-1.166752576828003,-1.7397441864013672
1773200127512887000,18.939886962890625,-0.5674937963485718,-1.1435397863388062,-1.5851953029632568
1773200127528907300,18.9559072265625,-0.41661009192466736,-1.006095051765442,-1.3200798034667969
1773200127544897800,18.971897705078124,-0.13316862285137177,-0.8100073337554932,-1.054964303970337
1773200127560889000,18.98788916015625,0.1319468915462494,-0.7043276429176331,-0.8949176073074341
1773200127576880000,19.003880126953124,0.21319197118282318,-0.7580837607383728,-0.8588765263557434
1773200127592902100,19.019902099609375,0.16798794269561768,-0.8515461683273315,-0.8301658630371094
1773200127608892700,19.035892578125,0.10934487730264664,-0.9187413454055786,-0.7935139536857605
1773200127624883700,19.0518837890625,0.06169738993048668,-0.8772025108337402,-0.7837401032447815
1773200127640905200,19.0679052734375,0.022602014243602753,-0.7348709106445312,-0.8497135639190674
1773200127656899300,19.0838994140625,0.016493361443281174,-0.5729916095733643,-1.026253581047058
1773200127672887600,19.099887451171874,0.05314527451992035,-0.5381723046302795,-1.2889256477355957
1773200127688880400,19.11588037109375,0.12889257073402405,-0.646906316280365,-1.4422528743743896
1773200127704902400,19.13190234375,0.17531833052635193,-0.7544185519218445,-1.3836097717285156
1773200127720891400,19.147891357421877,0.21807889640331268,-0.8442157506942749,-1.1911872625350952
1773200127736885800,19.1638857421875,0.25473082065582275,-0.8857545852661133,-1.006095051765442
1773200127752905000,19.179905029296876,0.2583959996700287,-0.8619308471679688,-0.9272934198379517
1773200127768897800,19.195897705078124,0.20830504596233368,-0.8045095205307007,-0.9590584635734558
1773200127784887800,19.2118876953125,0.1014036312699318,-0.7354817390441895,-1.0751228332519531
1773200127800880600,19.227880615234376,-0.05375614017248154,-0.6579018831253052,-1.2034045457839966
1773200127816903400,19.2439033203125,-0.22418753802776337,-0.5424483418464661,-1.29381263256073
1773200127832894500,19.25989453125,-0.3390302062034607,-0.43127086758613586,-1.3469579219818115
1773200127848882200,19.275882080078127,-0.3787364661693573,-0.4050036668777466,-1.445918083190918
1773200127864904200,19.291904296875,-0.39156460762023926,-0.4758640229701996,-1.6505578756332397
1773200127880896800,19.307896728515626,-0.38728857040405273,-0.5919284224510193,-1.8600846529006958
1773200127896889000,19.32388916015625,-0.394618958234787,-0.6737843751907349,-1.9706512689590454
1773200127912878300,19.33987841796875,-0.3982841372489929,-0.7049384713172913,-1.955379605293274
1773200127928900900,19.35590087890625,-0.36713001132011414,-0.7159340381622314,-1.8906279802322388
1773200127944891000,19.371890869140625,-0.3445279896259308,-0.7104362845420837,-1.8362609148025513
1773200127960882400,19.38788232421875,-0.3390302062034607,-0.7049384713172913,-1.794722080230713
1773200127976905000,19.403905029296876,-0.3701843321323395,-0.7092145681381226,-1.7482963800430298
1773200127992895700,19.419895751953124,-0.4447098970413208,-0.7171558141708374,-1.6841554641723633
1773200128008886800,19.43588671875,-0.5174028873443604,-0.7446447610855103,-1.6450600624084473
1773200128024877300,19.451877197265624,-0.5821545720100403,-0.8014551997184753,-1.6865988969802856
1773200128040898600,19.467898681640627,-0.646295428276062,-0.8820894360542297,-1.7806721925735474
1773200128056893000,19.483892822265624,-0.6811147332191467,-0.9101892113685608,-1.8319848775863647
1773200128072883700,19.4998837890625,-0.6768386960029602,-0.8772025108337402,-1.82404363155365
1773200128088904400,19.515904541015626,-0.616973876953125,-0.8008443117141724,-1.7727309465408325
1773200128104896000,19.53189599609375,-0.5277875661849976,-0.7171558141708374,-1.7324138879776
1773200128120885800,19.5478857421875,-0.45326200127601624,-0.6548475623130798,-1.7055357694625854
1773200128136908000,19.563907958984377,-0.41599923372268677,-0.6163630485534668,-1.6481144428253174
1773200128152898000,19.57989794921875,-0.4050036668777466,-0.5760459303855896,-1.547932505607605
1773200128168892200,19.59589208984375,-0.3933972120285034,-0.5351179838180542,-1.4233160018920898
1773200128184881000,19.611880859375,-0.3799581825733185,-0.5204572081565857,-1.303586483001709
1773200128196907500,19.623907470703124,-0.3689626157283783,-0.5253441333770752,-1.205847978591919
1773200128212897300,19.639897216796875,-0.3433062732219696,-0.5229006409645081,-1.045190453529358
1773200128224888800,19.651888916015626,-0.2883284091949463,-0.5143485069274902,-0.9175195693969727
1773200128240880600,19.667880615234374,-0.17409659922122955,-0.49235737323760986,-0.7409795522689819
1773200128256905500,19.683905517578125,-0.08918632566928864,-0.45631635189056396,-0.6383541822433472
1773200128272893000,19.699892822265625,-0.04214970022439957,-0.43615779280662537,-0.6010913848876953
1773200128288885800,19.7158857421875,-0.056810468435287476,-0.4050036668777466,-0.6053674817085266
1773200128304907800,19.73190771484375,-0.08918632566928864,-0.4001167416572571,-0.6346889734268188
1773200128320898600,19.747898681640624,-0.1362229436635971,-0.4184426963329315,-0.6664539575576782
1773200128336891600,19.7638916015625,-0.17531833052635193,-0.45814892649650574,-0.6676757335662842
1773200128352881000,19.779880859375,-0.1771509200334549,-0.4856378734111786,-0.6035348773002625
1773200128368902700,19.795902587890627,-0.13561208546161652,-0.4605923891067505,-0.5167919993400574
1773200128384892400,19.811892333984375,-0.0708603709936142,-0.4056145250797272,-0.4440990388393402
1773200128400883700,19.8278837890625,-0.01710422709584236,-0.34208452701568604,-0.3805690407752991
1773200128416906800,19.84390673828125,0.015271631069481373,-0.2932153046131134,-0.32620203495025635
1773200128432898000,19.85989794921875,0.01710422709584236,-0.2834414839744568,-0.30054569244384766
1773200128448889900,19.875889892578126,-0.007941247895359993,-0.3029891550540924,-0.31520646810531616
1773200128464880000,19.891880126953126,-0.030543262138962746,-0.32009339332580566,-0.3439171314239502
1773200128476905000,19.903905029296876,-0.0403171069920063,-0.323147714138031,-0.3677408695220947
1773200128488896800,19.915896728515627,-0.0507018156349659,-0.3194825351238251,-0.3982841372489929
1773200128504887300,19.93188720703125,-0.09285151958465576,-0.3121521472930908,-0.4355469346046448
1773200128520879000,19.947879150390627,-0.1569923609495163,-0.2938261926174164,-0.4660901725292206
1773200128536903700,19.963903564453126,-0.20586158335208893,-0.29504790902137756,-0.49235737323760986
1773200128552893700,19.979893798828126,-0.23029619455337524,-0.3078760802745819,-0.5088507533073425
1773200128568885000,19.995885009765626,-0.26633724570274353,-0.3237585723400116,-0.5161811113357544
1773200128584906200,20.01190625,-0.2968805134296417,-0.31459560990333557,-0.5155702829360962
1773200128600897500,20.0278974609375,-0.30115658044815063,-0.27611109614372253,-0.4893030524253845
