time,seconds_elapsed,z,y,x
1773200109036937500,0.4639375,9.097966194152832,2.1763293743133545,-1.1516109704971313
1773200109052927000,0.479927001953125,9.342175483703613,2.3080103397369385,-1.1252747774124146
1773200109068917200,0.495917236328125,9.57441234588623,2.2816741466522217,-1.0558429956436157
1773200109084909600,0.51190966796875,9.569623947143555,2.0685901641845703,-0.9409212470054626
1773200109100930600,0.5279306640625,9.461885452270508,1.8339585065841675,-0.790086567401886
1773200109116345900,0.543345947265625,9.44991397857666,1.8291701078414917,-0.7661445140838623
1773200109132914000,0.559913818359375,9.473855972290039,1.8914192914962769,-0.8882488012313843
1773200109148934400,0.575934326171875,9.299078941345215,1.9321208000183105,-0.9457096457481384
1773200109164925700,0.59192578125,9.30386734008789,1.9823989868164062,-0.9528923034667969
1773200109204935700,0.631935791015625,9.603142738342285,1.8148049116134644,-1.0582371950149536
1773200109220927700,0.647927734375,9.593565940856934,1.6735470294952393,-0.9265560507774353
1773200109236918800,0.663918701171875,9.588777542114258,1.8076223134994507,-1.1013327836990356
1773200109252940300,0.679940185546875,9.485827445983887,1.8938134908676147,-1.3072341680526733
1773200109268931000,0.69593115234375,9.251194953918457,1.987187385559082,-1.3958195447921753
1773200109284921900,0.711921875,9.241618156433105,2.0661959648132324,-1.4508862495422363
1773200109300914700,0.727914794921875,9.351752281188965,1.9967641830444336,-1.3646949529647827
1773200109316935700,0.743935791015625,9.497797966003418,1.9991583824157715,-1.4915876388549805
1773200109332936000,0.75993603515625,9.533711433410645,1.968033790588379,-1.7190368175506592
1773200109348915000,0.7759150390625,9.425971984863281,1.9800047874450684,-1.8148049116134644
1773200109364937700,0.791937744140625,9.224859237670898,1.9488801956176758,-1.7621324062347412
1773200109380930600,0.8079306640625,9.160215377807617,2.0207061767578125,-1.7070658206939697
1773200109396921900,0.823921875,9.222464561462402,2.0805611610412598,-1.766920804977417
1773200109412942300,0.8399423828125,9.39245319366455,2.0901381969451904,-1.8339585065841675
1773200109428934700,0.8559345703125,9.41400146484375,2.051830768585205,-1.9800047874450684
1773200109444924400,0.87192431640625,9.437943458557129,2.1068975925445557,-2.1523873805999756
1773200109460916000,0.887916015625,9.363722801208496,2.145204782485962,-2.0638017654418945
1773200109476939300,0.903939208984375,9.41400146484375,2.1140801906585693,-1.965639591217041
1773200109492929300,0.91992919921875,9.493009567260742,2.1380221843719482,-1.965639591217041
1773200109508921300,0.93592138671875,9.603142738342285,2.1284453868865967,-1.8626888990402222
1773200109524944600,0.951944580078125,9.641449928283691,2.1116859912872314,-1.867477297782898
1773200109540935200,0.96793505859375,9.502586364746094,2.161964178085327,-1.9033904075622559
1773200109556925700,0.98392578125,9.20091724395752,2.169146776199341,-1.946485996246338
1773200109572918000,0.99991796875,9.05487060546875,2.2194249629974365,-1.9512743949890137
1773200109588939000,1.01593896484375,9.153033256530762,2.145204782485962,-1.9153614044189453
1773200109604931000,1.03193115234375,9.366117477416992,2.0685901641845703,-1.944091796875
1773200109620920800,1.0479208984375,9.346963882446289,1.9847931861877441,-1.745373010635376
1773200109636942600,1.063942626953125,9.241618156433105,1.9919757843017578,-1.577778935432434
1773200109652933400,1.079933349609375,9.282320022583008,2.0183119773864746,-1.6927006244659424
1773200109668925000,1.095925048828125,9.428366661071777,2.078166961669922,-2.078166961669922
1773200109684917500,1.11191748046875,9.619902610778809,2.0901381969451904,-2.2649147510528564
1773200109700939300,1.127939208984375,9.80904483795166,2.0901381969451904,-2.31758713722229
1773200109716929500,1.143929443359375,9.885659217834473,2.1284453868865967,-2.252943754196167
1773200109732922000,1.159922119140625,9.895236015319824,2.185906171798706,-2.2242133617401123
1773200109748942000,1.175942138671875,9.80904483795166,2.1787235736846924,-2.212242364883423
1773200109764934400,1.191934326171875,9.57201862335205,2.205059766769409,-2.166752576828003
1773200109780924700,1.207924560546875,9.402029991149902,2.209848165512085,-2.1045033931732178
1773200109796917200,1.223917236328125,9.404424667358398,2.164358377456665,-2.0805611610412598
1773200109812938800,1.239938720703125,9.402029991149902,2.099714994430542,-2.1356279850006104
1773200109828927700,1.255927734375,9.402029991149902,2.1547815799713135,-2.2888567447662354
1773200109844918500,1.27191845703125,9.509769439697266,2.121262788772583,-2.319981336593628
1773200109860913200,1.2879130859375,9.670180320739746,2.006340980529785,-2.1739351749420166
1773200109876934000,1.303933837890625,9.737217903137207,1.9512743949890137,-1.9991583824157715
1773200109892924000,1.319923828125,9.737217903137207,1.920149803161621,-2.051830768585205
1773200109908915700,1.335915771484375,9.854534149169922,1.821987509727478,-2.0661959648132324
1773200109924938000,1.35193798828125,10.04846477508545,1.5538369417190552,-1.8842366933822632
1773200109940930300,1.367930419921875,10.204087257385254,1.316810965538025,-1.5873557329177856
1773200109956920000,1.383920166015625,10.065223693847656,1.1228805780410767,-1.50355863571167
1773200109972943000,1.399943115234375,9.81143856048584,1.1013327836990356,-1.4676456451416016
1773200109988932000,1.41593212890625,9.555258750915527,1.2306196689605713,-1.4269442558288574
1773200110004923000,1.4319228515625,9.370905876159668,1.3551181554794312,-1.4700398445129395
1773200110020915000,1.4479150390625,9.275136947631836,1.53707754611969,-1.7262194156646729
1773200110036938000,1.46393798828125,9.32541561126709,1.647210717201233,-1.9321208000183105
1773200110052929800,1.4799296875,9.488221168518066,1.656787633895874,-2.032677173614502
1773200110068919600,1.49591943359375,9.63187313079834,1.6687586307525635,-2.0661959648132324
1773200110084942600,1.511942626953125,9.725247383117676,1.599326729774475,-1.944091796875
1773200110100930800,1.527930908203125,9.780313491821289,1.3886369466781616,-1.6687586307525635
1773200110116924000,1.543923828125,9.727641105651855,1.2737152576446533,-1.3718775510787964
1773200110132914700,1.559914794921875,9.66299819946289,1.1540051698684692,-1.259350061416626
1773200110148935700,1.575935791015625,9.497797966003418,1.1540051698684692,-1.1755530834197998
1773200110164926700,1.5919267578125,9.375694274902344,1.1683704853057861,-1.1252747774124146
1773200110180920000,1.607920166015625,9.165003776550293,1.1875240802764893,-1.1109095811843872
1773200110196940500,1.6239404296875,9.083600997924805,1.2401964664459229,-1.1994950771331787
1773200110212932900,1.639932861328125,9.220070838928223,1.2330138683319092,-1.278503656387329
1773200110228924000,1.655923828125,9.378087997436523,1.2761094570159912,-1.335964560508728
1773200110244915200,1.671915283203125,9.428366661071777,1.338358759880066,-1.4700398445129395
1773200110260935700,1.687935791015625,9.531316757202148,1.4077905416488647,-1.577778935432434
1773200110276927000,1.703927001953125,9.603142738342285,1.3670891523361206,-1.414973258972168
1773200110292918800,1.719918701171875,9.66299819946289,1.2976573705673218,-1.235408067703247
1773200110308939800,1.735939697265625,9.617507934570312,1.292868971824646,-1.0462661981582642
1773200110324930800,1.751930908203125,9.59596061706543,1.3335703611373901,-1.0630255937576294
1773200110340923400,1.76792333984375,9.639056205749512,1.3646949529647827,-1.2282254695892334
1773200110356913200,1.7839130859375,9.531316757202148,1.3192051649093628,-1.0869675874710083
1773200110372936400,1.7999365234375,9.320627212524414,1.2952631711959839,-0.7757213711738586
1773200110388928300,1.81592822265625,9.102754592895508,1.2832920551300049,-0.5650315880775452
1773200110404919000,1.8319189453125,9.11233139038086,1.3215993642807007,-0.6320692300796509
1773200110420939500,1.847939453125,9.258378028869629,1.338358759880066,-0.7613561153411865
1773200110436931300,1.863931396484375,9.531316757202148,1.37906014919281,-0.8978256583213806
1773200110452922400,1.87992236328125,9.921571731567383,1.5107412338256836,-1.2401964664459229
1773200110468944100,1.895944091796875,10.254365921020508,1.5442601442337036,-1.4532804489135742
1773200110484936400,1.9119365234375,10.163386344909668,1.5490485429763794,-1.2401964664459229
1773200110500925000,1.927925048828125,9.816226959228516,1.5921441316604614,-0.9696516990661621
1773200110516919300,1.943919189453125,9.500192642211914,1.577778935432434,-0.8140285611152649
1773200110532940800,1.95994091796875,9.279925346374512,1.5107412338256836,-0.7398083209991455
1773200110548930600,1.9759306640625,9.20091724395752,1.5083470344543457,-0.8259995579719543
1773200110564921600,1.991921630859375,9.275136947631836,1.4293384552001953,-0.9074024558067322
1773200110580911600,2.00791162109375,9.394847869873047,1.3215993642807007,-0.871489405632019
1773200110596936200,2.023936279296875,9.5624418258667,1.3623007535934448,-0.8355764150619507
1773200110612927000,2.039927001953125,9.627084732055664,1.2856862545013428,-0.7086837291717529
1773200110628918300,2.055918212890625,9.50737476348877,1.2306196689605713,-0.5363011956214905
1773200110644940300,2.071940185546875,9.409213066101074,1.2856862545013428,-0.5315127968788147
1773200110660929300,2.08792919921875,9.35893440246582,1.3910311460494995,-0.6320692300796509
1773200110676922600,2.103922607421875,9.366117477416992,1.4724340438842773,-0.6727706789970398
1773200110692944000,2.11994384765625,9.394847869873047,1.644816517829895,-0.6943184733390808
1773200110708935400,2.135935302734375,9.342175483703613,1.843535304069519,-0.6129156351089478
1773200110724926500,2.151926513671875,9.191340446472168,1.9249382019042969,-0.4118026793003082
1773200110740916000,2.167916015625,9.062053680419922,2.0661959648132324,-0.3758896589279175
1773200110756939300,2.183939208984375,9.009381294250488,2.030282974243164,-0.17956513166427612
1773200110772931600,2.199931640625,9.08838939666748,1.968033790588379,-0.05027823522686958
1773200110788920600,2.215920654296875,9.409213066101074,1.8602946996688843,-0.1604115068912506
1773200110804942600,2.231942626953125,9.804255485534668,1.680729627609253,-0.33039984107017517
1773200110820935400,2.247935302734375,10.36449909210205,1.599326729774475,-0.5219359993934631
1773200110836926000,2.263926025390625,10.651803016662598,1.5682021379470825,-0.7015010714530945
1773200110852915500,2.27991552734375,10.649409294128418,1.625662922859192,-0.8595184087753296
1773200110868939500,2.295939453125,10.283096313476562,1.6831238269805908,-0.9528923034667969
1773200110884928000,2.311927978515625,9.732429504394531,1.702277421951294,-0.9097966551780701
1773200110900920600,2.327920654296875,9.27034854888916,1.6735470294952393,-0.828393816947937
1773200110916943000,2.343943115234375,9.062053680419922,1.7094600200653076,-0.751779317855835
1773200110932933600,2.35993359375,9.040505409240723,1.7262194156646729,-0.6703764796257019
1773200110948923100,2.375923095703125,9.047688484191895,1.7166426181793213,-0.5147533416748047
1773200110964917200,2.391917236328125,9.126696586608887,1.7549498081207275,-0.38067805767059326
1773200110980938200,2.407938232421875,9.248801231384277,1.6711528301239014,-0.272938996553421
1773200110996929500,2.423929443359375,9.459490776062012,1.5466543436050415,-0.272938996553421
1773200111012921000,2.439921142578125,9.624691009521484,1.5418659448623657,-0.38067805767059326
1773200111028942000,2.455942138671875,9.914389610290527,1.4915876388549805,-0.5315127968788147
1773200111044933600,2.47193359375,10.122684478759766,1.5394717454910278,-0.7829039692878723
1773200111060926200,2.48792626953125,10.247182846069336,1.702277421951294,-0.6224924325942993
1773200111076915200,2.503915283203125,9.99100399017334,1.7621324062347412,-0.524330198764801
1773200111092936700,2.519936767578125,9.813833236694336,1.8076223134994507,-0.4596867263317108
1773200111108930600,2.5359306640625,9.780313491821289,1.946485996246338,-0.5602431893348694
1773200111124920800,2.5519208984375,9.742006301879883,1.9752163887023926,-0.8523358106613159
1773200111140940800,2.56794091796875,9.885659217834473,2.054224967956543,-1.1492167711257935
1773200111156933400,2.583933349609375,10.017339706420898,2.049436569213867,-1.1899182796478271
1773200111172922600,2.599922607421875,10.070012092590332,2.0877439975738525,-1.1971008777618408
1773200111188915200,2.615915283203125,10.0580415725708,2.2026655673980713,-1.359906554222107
1773200111204938000,2.63193798828125,9.86650562286377,2.183511972427368,-1.558625340461731
1773200111220927000,2.647927001953125,9.634267807006836,2.2816741466522217,-1.4484920501708984
1773200111236919600,2.66391943359375,9.605537414550781,2.403778553009033,-1.3407529592514038
1773200111252942600,2.679942626953125,9.68694019317627,2.47560453414917,-1.3024457693099976
1773200111268933000,2.69593310546875,9.871294021606445,2.559401512145996,-1.3048399686813354
1773200111284922000,2.711922119140625,9.923966407775879,2.63362193107605,-1.278503656387329
1773200111300914200,2.7279140625,9.8784761428833,2.626439332962036,-1.0127472877502441
1773200111316937500,2.7439375,9.830592155456543,2.542642116546631,-0.9169792532920837
1773200111332928500,2.759928466796875,9.971850395202637,2.3271639347076416,-0.8690952062606812
1773200111348919300,2.775919189453125,10.441113471984863,2.1475989818573,-0.9097966551780701
1773200111364939500,2.791939453125,10.982203483581543,1.9321208000183105,-0.9744400978088379
1773200111380933000,2.80793310546875,11.152191162109375,1.8315643072128296,-1.05105459690094
1773200111396923600,2.823923583984375,10.977415084838867,1.824381709098816,-1.1109095811843872
1773200111412915500,2.83991552734375,10.900800704956055,1.647210717201233,-1.338358759880066
1773200111428935200,2.85593505859375,10.773907661437988,1.37906014919281,-1.4628572463989258
1773200111444927200,2.87192724609375,10.213664054870605,1.1635819673538208,-1.1683704853057861
1773200111460920000,2.887920166015625,9.265560150146484,0.9888052940368652,-0.8044517636299133
1773200111476941000,2.903941162109375,8.250418663024902,0.8882488012313843,-0.6344634294509888
1773200111492932000,2.91993212890625,7.577648162841797,0.9169792532920837,-0.7876923680305481
1773200111508923600,2.935923583984375,7.333439826965332,0.8643068075180054,-0.7589619159698486
1773200111524913200,2.9519130859375,7.441178798675537,0.6607996821403503,-0.5578489899635315
1773200111540935400,2.967935302734375,7.910442352294922,0.5315127968788147,-0.40222588181495667
1773200111556928300,2.98392822265625,8.611943244934082,0.5386953949928284,-0.730231523513794
1773200111572916500,2.99991650390625,9.318233489990234,0.5410895943641663,-0.912190854549408
1773200111588939500,3.015939453125,9.658209800720215,0.6775590777397156,-0.9624691009521484
1773200111604929300,3.03192919921875,9.68694019317627,1.070208191871643,-1.194706678390503
1773200111620923000,3.0479228515625,9.646238327026367,1.4532804489135742,-1.7190368175506592
1773200111636944600,3.063944580078125,9.425971984863281,1.5825673341751099,-2.229001760482788
1773200111652933400,3.079933349609375,9.160215377807617,1.7573440074920654,-2.513911724090576
1773200111668925200,3.09592529296875,8.920795440673828,1.9991583824157715,-2.894589900970459
1773200111684918500,3.11191845703125,9.045293807983398,2.3104045391082764,-3.7493197917938232
1773200111700941300,3.12794140625,9.354146003723145,2.4444799423217773,-4.400542736053467
1773200111716930800,3.143930908203125,9.48343276977539,2.434903144836426,-4.563348293304443
1773200111732921000,3.159921142578125,9.593565940856934,2.470816135406494,-4.2544965744018555
1773200111748942300,3.1759423828125,9.667786598205566,2.363077163696289,-3.8379054069519043
1773200111764933000,3.19193310546875,9.44991397857666,2.3511061668395996,-3.3518824577331543
1773200111780925000,3.207925048828125,9.042900085449219,2.166752576828003,-2.7772738933563232
1773200111796918800,3.223918701171875,8.755595207214355,1.9297266006469727,-2.126051187515259
1773200111812938800,3.239938720703125,8.628703117370605,1.7980455160140991,-1.6184803247451782
1773200111828929000,3.255928955078125,8.597578048706055,1.5921441316604614,-1.3527239561080933
1773200111844920800,3.2719208984375,8.631096839904785,1.5418659448623657,-1.3623007535934448
1773200111860943600,3.287943603515625,8.743624687194824,1.5849615335464478,-1.5155296325683594
1773200111876935000,3.303934814453125,8.968679428100586,1.580173134803772,-1.6328455209732056
1773200111892924000,3.319923828125,9.294290542602539,1.678335428237915,-1.9057846069335938
1773200111908916700,3.335916748046875,9.50737476348877,1.7477672100067139,-2.161964178085327
1773200111924937500,3.3519375,9.684545516967773,1.8411411046981812,-2.3942017555236816
1773200111940929300,3.36792919921875,9.708487510681152,1.886630892753601,-2.736572504043579
1773200111956921900,3.383921875,9.53849983215332,1.9345149993896484,-3.093308687210083
1773200111972942300,3.3999423828125,9.425971984863281,2.030282974243164,-3.359065055847168
1773200111988932000,3.41593212890625,9.136273384094238,1.965639591217041,-3.354276657104492
1773200112004923400,3.43192333984375,8.932766914367676,1.8698714971542358,-3.2609026432037354
1773200112020917500,3.44791748046875,8.80587387084961,1.941697597503662,-3.1531636714935303
1773200112036938500,3.4639384765625,8.664615631103516,1.941697597503662,-3.1244332790374756
1773200112052931000,3.47993115234375,8.650250434875488,1.9536685943603516,-3.2369606494903564
1773200112068919300,3.495919189453125,8.710105895996094,1.9536685943603516,-3.177105665206909
1773200112084942800,3.51194287109375,8.968679428100586,1.9560627937316895,-3.066972494125366
1773200112100933400,3.527933349609375,9.124302864074707,1.7501614093780518,-3.066972494125366
1773200112116926000,3.543926025390625,9.445125579833984,1.7932571172714233,-3.205836057662964
1773200112132914200,3.5599140625,9.63187313079834,1.9393033981323242,-3.308786630630493
1773200112148938200,3.575938232421875,9.768342971801758,2.054224967956543,-3.4189200401306152
1773200112164929300,3.59192919921875,9.607931137084961,2.250549554824829,-3.620033025741577
1773200112180920000,3.607920166015625,9.531316757202148,2.3343467712402344,-3.88818359375
1773200112196942600,3.623942626953125,9.481039047241211,2.2433669567108154,-3.9432501792907715
1773200112212933600,3.63993359375,9.265560150146484,2.0877439975738525,-4.062960147857666
1773200112228924400,3.65592431640625,8.786720275878906,2.169146776199341,-4.127603530883789
1773200112244916500,3.67191650390625,8.257601737976074,2.389413356781006,-4.235342979431152
1773200112260938000,3.68793798828125,7.807491779327393,2.535459518432617,-4.347870349884033
1773200112276929300,3.70392919921875,7.936778545379639,2.765302896499634,-4.364629745483398
1773200112292921000,3.719921142578125,8.453926086425781,2.940079689025879,-3.737348794937134
1773200112308940800,3.73594091796875,8.44195556640625,2.7006595134735107,-3.936067581176758
1773200112324932600,3.7519326171875,8.279149055480957,2.7461493015289307,-4.577713489532471
1773200112340925000,3.767925048828125,8.02536392211914,2.875436305999756,-4.9368438720703125
1773200112356946400,3.783946533203125,7.711723804473877,3.1220390796661377,-4.946420669555664
1773200112372936200,3.799936279296875,7.2137298583984375,3.0119056701660156,-4.534617900848389
1773200112388926500,3.815926513671875,7.117961883544922,3.136404275894165,-4.345476150512695
1773200112404920300,3.83192041015625,7.2783732414245605,3.050212860107422,-4.383783340454102
1773200112420940300,3.847940185546875,7.836222171783447,2.9975404739379883,-4.932055473327637
1773200112436932600,3.8639326171875,8.29830265045166,2.9664158821105957,-5.621585369110107
1773200112452924700,3.879924560546875,8.458714485168457,2.8227639198303223,-5.621585369110107
1773200112468944600,3.895944580078125,8.700529098510742,2.8107926845550537,-5.327098846435547
1773200112484938000,3.91193798828125,8.640673637390137,2.7437551021575928,-4.9799394607543945
1773200112500927200,3.92792724609375,8.212111473083496,2.6240451335906982,-4.474762916564941
1773200112516920600,3.943920654296875,7.951143741607666,2.564189910888672,-4.228160381317139
1773200112532939500,3.959939453125,7.824251174926758,2.5306711196899414,-4.410119533538818
1773200112548931000,3.97593115234375,7.91283655166626,2.63362193107605,-4.699818134307861
1773200112564922000,3.991922119140625,7.833827972412109,2.4660277366638184,-4.323928356170654
1773200112580914200,4.0079140625,8.042123794555664,2.4803929328918457,-3.825934410095215
1773200112596936400,4.0239365234375,8.508993148803711,2.7102363109588623,-4.3861775398254395
1773200112612926200,4.03992626953125,8.504204750061035,2.518700122833252,-4.8051629066467285
1773200112628917200,4.055917236328125,8.305485725402832,2.7461493015289307,-4.568136692047119
1773200112644939300,4.071939208984375,7.86734676361084,2.8227639198303223,-4.446032524108887
1773200112660932600,4.0879326171875,7.934384346008301,2.9448680877685547,-4.6040496826171875
1773200112676922600,4.103922607421875,8.38449478149414,2.9448680877685547,-4.869806289672852
1773200112700940800,4.12794091796875,8.252813339233398,2.959233283996582,-4.716577529907227
1773200112716931300,4.143931396484375,7.90086555480957,3.1100680828094482,-4.72376012802124
1773200112732920800,4.1599208984375,7.580042362213135,3.2106244564056396,-5.008669853210449
1773200112748942600,4.175942626953125,7.9176249504089355,3.1699230670928955,-4.975151062011719
1773200112764935200,4.19193505859375,8.267178535461426,2.978386878967285,-4.831499099731445
1773200112780926500,4.207926513671875,8.35336971282959,3.0166940689086914,-4.383783340454102
1773200112796917500,4.22391748046875,8.212111473083496,3.050212860107422,-4.381389141082764
1773200112812939300,4.239939208984375,8.161833763122559,3.337517261505127,-4.4723687171936035
1773200112828930300,4.255930419921875,8.461109161376953,3.270479440689087,-4.261679172515869
1773200112844921300,4.27192138671875,8.803479194641113,3.3039982318878174,-4.158728122711182
1773200112860912400,4.287912353515625,8.724471092224121,3.3207578659057617,-4.24970817565918
1773200112876936200,4.303936279296875,8.250418663024902,3.399766445159912,-4.414907932281494
1773200112892926200,4.31992626953125,7.577648162841797,3.600879430770874,-4.592078685760498
1773200112908919000,4.3359189453125,7.151480674743652,3.6942532062530518,-4.462791919708252
1773200112924938800,4.351938720703125,7.16584587097168,3.6846764087677,-4.5394062995910645
1773200112940930000,4.367929931640625,7.386112213134766,3.6320040225982666,-4.532223701477051
1773200112956921900,4.383921875,7.623138427734375,3.5745432376861572,-4.58968448638916
1773200112972944600,4.399944580078125,7.644686222076416,3.552995204925537,-4.304774761199951
1773200112988934400,4.415934326171875,7.711723804473877,3.383007049560547,-3.971980571746826
1773200113004924400,4.43192431640625,7.781155586242676,3.361459255218506,-3.7636849880218506
1773200113020915500,4.44791552734375,7.948749542236328,3.2585084438323975,-3.8498764038085938
1773200113036940000,4.46393994140625,8.212111473083496,3.294421434402466,-3.8738183975219727
1773200113052930000,4.479929931640625,7.85537576675415,3.4332852363586426,-3.97916316986084
1773200113068919600,4.49591943359375,7.515398979187012,3.7205893993377686,-4.017470359802246
1773200113084943400,4.511943359375,7.194576263427734,3.708618402481079,-4.0294413566589355
1773200113100933600,4.52793359375,7.266402244567871,3.840299606323242,-4.039018154144287
1773200113116925200,4.54392529296875,7.726089000701904,3.818751811981201,-4.225766181945801
1773200113132916000,4.559916015625,8.303091049194336,3.5745432376861572,-4.0964789390563965
1773200113148936700,4.575936767578125,8.549694061279297,3.6990416049957275,-3.9863457679748535
1773200113164928800,4.5919287109375,8.305485725402832,3.778050184249878,-4.137180328369141
1773200113180920600,4.607920654296875,7.924807548522949,3.7205893993377686,-3.8283286094665527
1773200113196943400,4.623943359375,7.726089000701904,3.8283286094665527,-4.034229755401611
1773200113212935000,4.639934814453125,7.649474620819092,3.7924153804779053,-4.177882194519043
1773200113228924400,4.65592431640625,7.661445617675781,3.6990416049957275,-4.091690540313721
1773200113244917500,4.67191748046875,7.637503623962402,3.6559460163116455,-3.8977603912353516
1773200113260937700,4.687937744140625,7.754819393157959,3.5721490383148193,-3.6104562282562256
1773200113276929800,4.7039296875,8.269572257995605,3.466804027557373,-3.471592426300049
1773200113292919800,4.719919921875,8.712499618530273,3.464409828186035,-3.268085241317749
1773200113308940800,4.73594091796875,8.731653213500977,3.3231520652770996,-3.134010076522827
1773200113324933400,4.751933349609375,8.889671325683594,3.2632968425750732,-3.337517261505127
1773200113340924200,4.767924072265625,8.892065048217773,3.3016040325164795,-3.536235809326172
1773200113356916500,4.78391650390625,8.619126319885254,3.31118106842041,-3.6822822093963623
1773200113372907500,4.799907470703125,8.291120529174805,3.332728862762451,-3.6535518169403076
1773200113388928500,4.815928466796875,7.987056732177734,3.3518824577331543,-3.6774938106536865
1773200113404921300,4.83192138671875,8.10437297821045,3.4835634231567383,-3.8786067962646484
1773200113420940800,4.84794091796875,8.26478385925293,3.4189200401306152,-3.8738183975219727
1773200113436933400,4.863933349609375,8.360552787780762,3.383007049560547,-3.8091750144958496
1773200113452923000,4.8799228515625,8.614337921142578,3.383007049560547,-3.892971992492676
1773200113468914400,4.89591455078125,8.729259490966797,3.426102638244629,-4.1156325340271
1773200113484937200,4.911937255859375,8.592789649963379,3.399766445159912,-4.086902141571045
1773200113500928300,4.92792822265625,8.379706382751465,3.3686418533325195,-3.995922565460205
1773200113516920800,4.9439208984375,8.202534675598145,3.335123062133789,-3.9887399673461914
1773200113532940500,4.9599404296875,8.10437297821045,3.3016040325164795,-4.0294413566589355
1773200113548932400,4.975932373046875,8.044517517089844,3.268085241317749,-3.907337188720703
1773200113564921900,4.991921875,7.989450931549072,3.136404275894165,-3.737348794937134
1773200113580914000,5.007913818359375,8.101978302001953,3.066972494125366,-3.6774938106536865
1773200113596937000,5.02393701171875,8.281543731689453,3.071760892868042,-3.8307228088378906
1773200113612927500,5.039927490234375,8.51138687133789,3.0334534645080566,-4.010287761688232
1773200113628917500,5.05591748046875,8.523358345031738,3.0119056701660156,-4.0078935623168945
1773200113644940800,5.07194091796875,8.473079681396484,2.9688100814819336,-3.9671921730041504
1773200113660932600,5.0879326171875,8.396465301513672,3.021482467651367,-3.952826976776123
1773200113676924200,5.103924072265625,8.192957878112793,2.9927520751953125,-3.883395195007324
1773200113692944100,5.119944091796875,8.26239013671875,3.064578056335449,-3.909731388092041
1773200113708934700,5.1359345703125,8.312667846679688,3.028665065765381,-4.048594951629639
1773200113724928000,5.151927978515625,8.494627952575684,3.047818660736084,-4.201824188232422
1773200113740919800,5.167919921875,8.662221908569336,3.043030261993408,-4.441244125366211
1773200113756941000,5.183941162109375,8.633491516113281,3.1268274784088135,-4.434061527252197
1773200113772929300,5.19992919921875,8.377311706542969,3.1316158771514893,-4.228160381317139
1773200113788923100,5.215923095703125,8.17141056060791,3.1435868740081787,-4.067748546600342
1773200113804944000,5.23194384765625,8.073247909545898,3.138798475265503,-4.039018154144287
1773200113820935400,5.247935302734375,8.145073890686035,3.043030261993408,-3.9240965843200684
1773200113836928300,5.26392822265625,8.300697326660156,2.940079689025879,-3.8283286094665527
1773200113852917200,5.279917236328125,8.47547435760498,2.8443117141723633,-3.909731388092041
1773200113868939500,5.295939453125,8.537723541259766,2.9161376953125,-4.211400985717773
1773200113884932000,5.31193212890625,8.358158111572266,2.9257144927978516,-4.218583583831787
1773200113900922400,5.32792236328125,8.044517517089844,2.9712042808532715,-4.127603530883789
1773200113916944600,5.343944580078125,7.843404769897461,2.959233283996582,-4.0964789390563965
1773200113932933400,5.359933349609375,7.850587368011475,3.028665065765381,-4.084507942199707
1773200113948927700,5.375927734375,7.8529815673828125,3.2369606494903564,-4.307168960571289
1773200113964917200,5.391917236328125,7.814674377441406,3.4548330307006836,-4.501099109649658
1773200113980938200,5.407938232421875,7.9846625328063965,3.663128614425659,-4.742913722991943
1773200113996931800,5.423931884765625,7.9415669441223145,3.7469255924224854,-4.608838081359863
1773200114012922400,5.43992236328125,7.970297336578369,3.7229835987091064,-4.1874589920043945
1773200114028943000,5.455943115234375,8.243236541748047,3.670311212539673,-3.801992416381836
1773200114044934400,5.471934326171875,8.621520042419434,3.529053211212158,-3.6104562282562256
1773200114060927500,5.487927490234375,8.87051773071289,3.3877954483032227,-3.426102638244629
1773200114076918300,5.503918212890625,9.126696586608887,3.1747114658355713,-3.2154128551483154
1773200114092938500,5.5199384765625,9.188945770263672,3.050212860107422,-3.2321722507476807
1773200114108930600,5.5359306640625,8.89685344696045,2.9735984802246094,-3.090914487838745
1773200114124920800,5.5519208984375,8.547300338745117,2.849100112915039,-2.7940332889556885
1773200114140942800,5.56794287109375,8.372523307800293,2.782062292098999,-2.6623523235321045
1773200114156935000,5.583934814453125,8.245630264282227,2.786850690841675,-2.5929205417633057
1773200114172924400,5.59992431640625,8.085219383239746,2.8395233154296875,-2.647987127304077
1773200114188916000,5.615916015625,7.999027729034424,2.8634653091430664,-2.9712042808532715
1773200114204939500,5.631939453125,8.056488990783691,3.0095114707946777,-3.3662476539611816
1773200114220929300,5.64792919921875,8.008605003356934,3.1076738834381104,-3.464409828186035
1773200114236921600,5.663921630859375,8.051700592041016,3.155557870864868,-3.4117374420166016
1773200114252941600,5.679941650390625,8.293514251708984,3.2537200450897217,-3.5218706130981445
1773200114268935200,5.69593505859375,8.592789649963379,3.397372245788574,-3.7924153804779053
1773200114284924700,5.711924560546875,8.99740982055664,3.5697548389434814,-4.156333923339844
1773200114300916700,5.727916748046875,9.452308654785156,3.598485231399536,-4.3622355461120605
1773200114316938500,5.7439384765625,9.5408935546875,3.576937437057495,-4.316745758056641
1773200114332929000,5.759928955078125,9.299078941345215,3.4739866256713867,-4.05817174911499
1773200114348920600,5.775920654296875,9.02135181427002,3.383007049560547,-3.7612907886505127
1773200114364943400,5.791943359375,8.80587387084961,3.224989652633667,-3.5865142345428467
1773200114380908500,5.807908447265625,8.5903959274292,3.160346269607544,-3.488351821899414
1773200114396900600,5.823900634765625,8.482656478881836,3.0334534645080566,-3.509899616241455
1773200114412890600,5.839890625,8.633491516113281,2.9257144927978516,-3.5410242080688477
1773200114428914000,5.855913818359375,8.676587104797363,2.892195701599121,-3.5889084339141846
1773200114444904200,5.871904296875,8.516175270080566,2.9472622871398926,-3.5913026332855225
1773200114460897300,5.887897216796875,8.75080680847168,3.0406360626220703,-3.780444383621216
1773200114476918500,5.90391845703125,9.224859237670898,2.9472622871398926,-3.7493197917938232
1773200114492910000,5.91991015625,9.425971984863281,2.889801502227783,-3.4165258407592773
1773200114508899800,5.93589990234375,9.35654067993164,2.8562827110290527,-3.1675288677215576
1773200114524891000,5.951890869140625,9.20091724395752,2.8347349166870117,-2.964021682739258
1773200114540913700,5.96791357421875,9.062053680419922,2.786850690841675,-3.004723072052002
1773200114556906200,5.98390625,8.882488250732422,2.7916390895843506,-2.8826189041137695
1773200114572896800,5.999896728515625,8.844181060791016,2.6431987285614014,-2.9257144927978516
1773200114588915700,6.015915771484375,9.057265281677246,2.5785553455352783,-3.095702886581421
1773200114604907500,6.031907470703125,9.215282440185547,2.4660277366638184,-3.090914487838745
1773200114620899600,6.047899658203125,9.100360870361328,2.293645143508911,-2.846705913543701
1773200114636892200,6.06389208984375,8.975862503051758,2.2002713680267334,-2.7030537128448486
1773200114652913700,6.07991357421875,9.002198219299316,2.140416383743286,-2.693476915359497
1773200114668903200,6.095903076171875,9.258378028869629,2.1116859912872314,-2.873042106628418
1773200114684896000,6.11189599609375,9.624691009521484,2.1763293743133545,-3.00711727142334
1773200114700918500,6.12791845703125,9.514557838439941,2.2170307636260986,-2.96162748336792
1773200114716908300,6.143908203125,9.050082206726074,2.315192937850952,-2.9472622871398926
1773200114732900600,6.159900634765625,8.559270858764648,2.4612393379211426,-3.0597896575927734
1773200114748922000,6.175922119140625,8.1139497756958,2.628833532333374,-3.1938650608062744
1773200114764911600,6.19191162109375,7.9631147384643555,2.6408045291900635,-3.3039982318878174
1773200114780901600,6.207901611328125,8.224082946777344,2.612074136734009,-3.2968156337738037
1773200114796895000,6.22389501953125,8.355764389038086,2.516305923461914,-3.179499864578247
1773200114812917000,6.2399169921875,8.398859977722168,2.5330653190612793,-3.24414324760437
1773200114828906000,6.255906005859375,8.487444877624512,2.561795711517334,-3.313575267791748
1773200114844898000,6.27189794921875,8.473079681396484,2.612074136734009,-3.3686418533325195
1773200114860889600,6.2878896484375,8.334216117858887,2.655169725418091,-3.251325845718384
1773200114876912000,6.303912109375,8.190564155578613,2.7006595134735107,-3.112462282180786
1773200114892901600,6.319901611328125,8.24084186553955,2.7892448902130127,-3.2178070545196533
1773200114908893200,6.33589306640625,8.391676902770996,2.8826189041137695,-3.3063924312591553
1773200114924915200,6.351915283203125,8.485051155090332,2.913743495941162,-3.2992098331451416
1773200114940904700,6.36790478515625,8.544905662536621,2.985569477081299,-3.19865345954895
1773200114956899000,6.383899169921875,8.497021675109863,3.002328872680664,-3.0526070594787598
1773200114972920600,6.399920654296875,8.465897560119629,2.96162748336792,-2.7700912952423096
1773200114988910600,6.41591064453125,8.396465301513672,2.8562827110290527,-2.4013843536376953
1773200115004900900,6.43190087890625,8.4108304977417,2.6647465229034424,-1.98958158493042
1773200115020892200,6.44789208984375,8.53532886505127,2.516305923461914,-1.7477672100067139
1773200115036916500,6.46391650390625,8.803479194641113,2.4013843536376953,-1.656787633895874
1773200115052906000,6.479906005859375,9.210494041442871,2.363077163696289,-1.6927006244659424
1773200115068896300,6.495896240234375,9.363722801208496,2.2912509441375732,-1.623268723487854
1773200115084920800,6.5119208984375,9.516951560974121,2.2194249629974365,-1.5442601442337036
1773200115100911900,6.527911865234375,9.742006301879883,2.1930887699127197,-1.5203180313110352
1773200115116903000,6.54390283203125,10.127472877502441,2.2912509441375732,-1.8052281141281128
1773200115132892700,6.559892578125,10.326191902160645,2.432508945465088,-2.1475989818573
1773200115148914700,6.575914794921875,10.065223693847656,2.7054479122161865,-2.5282769203186035
1773200115164904000,6.591904052734375,9.634267807006836,2.9305028915405273,-2.806004285812378
1773200115180898800,6.60789892578125,9.057265281677246,3.093308687210083,-2.7557260990142822
1773200115196919600,6.62391943359375,8.523358345031738,3.2297780513763428,-2.6192567348480225
1773200115212911600,6.63991162109375,8.022970199584961,3.251325845718384,-2.494758129119873
1773200115228900600,6.655900634765625,7.762001991271973,3.205836057662964,-2.363077163696289
1773200115244923000,6.6719228515625,7.836222171783447,3.0382418632507324,-2.1068975925445557
1773200115260914400,6.68791455078125,8.154650688171387,2.8155810832977295,-1.8986018896102905
1773200115276906000,6.703906005859375,8.554482460021973,2.650381326675415,-1.764526605606079
1773200115292895200,6.719895263671875,9.08838939666748,2.5498247146606445,-1.6304513216018677
1773200115308918300,6.735918212890625,9.493009567260742,2.5306711196899414,-1.7477672100067139
1773200115324910600,6.75191064453125,9.84256362915039,2.4899697303771973,-1.7070658206939697
1773200115340900400,6.767900390625,10.101137161254883,2.5067291259765625,-1.6041151285171509
1773200115356893000,6.783892822265625,10.24239444732666,2.454056739807129,-1.577778935432434
1773200115372912000,6.799912109375,10.273519515991211,2.6384103298187256,-1.5873557329177856
1773200115388904400,6.815904541015625,9.890447616577148,2.7437551021575928,-1.659181833267212
1773200115404895700,6.831895751953125,9.44991397857666,2.868253707885742,-1.7286136150360107
1773200115420918800,6.847918701171875,8.865729331970215,2.8993782997131348,-1.7764976024627686
1773200115436910000,6.86391015625,8.935160636901855,2.9161376953125,-1.8411411046981812
1773200115452902000,6.87990185546875,9.167398452758789,2.8443117141723633,-1.987187385559082
1773200115468921600,6.895921630859375,9.002198219299316,2.9328970909118652,-2.1332337856292725
1773200115484911000,6.9119111328125,8.99740982055664,3.064578056335449,-2.2002713680267334
1773200115500903400,6.9279033203125,9.133879661560059,3.1316158771514893,-2.3750481605529785
1773200115516896800,6.943896728515625,9.346963882446289,3.1747114658355713,-2.5785553455352783
1773200115532917800,6.959917724609375,9.677363395690918,3.157952070236206,-2.6240451335906982
1773200115548906500,6.975906494140625,9.928754806518555,3.1004912853240967,-2.537853717803955
1773200115564899000,6.991899169921875,9.945513725280762,3.1196448802948,-2.6575639247894287
1773200115580921300,7.00792138671875,10.08437728881836,3.1723172664642334,-2.918531894683838
1773200115596912600,7.02391259765625,10.070012092590332,3.004723072052002,-3.098097085952759
1773200115612903200,7.039903076171875,10.108319282531738,2.6431987285614014,-3.201047658920288
1773200115628895500,7.0558955078125,10.488997459411621,2.1811177730560303,-3.5242648124694824
1773200115644916200,7.071916259765625,10.793061256408691,1.9153614044189453,-4.216189384460449
1773200115660908000,7.087907958984375,10.757147789001465,1.9608511924743652,-5.123591423034668
1773200115676900000,7.103900146484375,10.137049674987793,1.9177556037902832,-5.442020416259766
1773200115692920600,7.119920654296875,9.476250648498535,1.5921441316604614,-5.073313236236572
1773200115708910800,7.135910888671875,9.093177795410156,1.3120225667953491,-4.010287761688232
1773200115724905000,7.151905029296875,8.329427719116211,1.0295066833496094,-3.1962592601776123
1773200115740893700,7.167893798828125,7.489062786102295,0.9217676520347595,-2.6024973392486572
1773200115756917500,7.18391748046875,6.682217121124268,0.9217676520347595,-2.4157495498657227
1773200115772908300,7.199908203125,6.270414352416992,0.9433154463768005,-2.408566951751709
1773200115788898000,7.21589794921875,6.117185115814209,0.9145850539207458,-2.4827871322631836
1773200115804920600,7.231920654296875,6.165069580078125,0.9792284965515137,-2.564189910888672
1773200115820911000,7.2479111328125,6.5481414794921875,1.2521674633026123,-3.0861260890960693
1773200115836903200,7.263903076171875,7.328651428222656,1.843535304069519,-3.8546648025512695
1773200115852893700,7.279893798828125,8.528146743774414,2.3726539611816406,-4.776432514190674
1773200115868916200,7.295916259765625,9.670180320739746,2.875436305999756,-5.731719017028809
1773200115884905700,7.31190576171875,10.536881446838379,3.442862033843994,-6.313509941101074
1773200115900896800,7.327896728515625,10.697293281555176,3.7708675861358643,-6.517016887664795
1773200115916920000,7.343920166015625,10.357316970825195,3.6750996112823486,-5.940014362335205
1773200115932912400,7.359912353515625,9.409213066101074,3.4620156288146973,-4.862623691558838
1773200115948902100,7.375902099609375,8.544905662536621,3.2345664501190186,-4.201824188232422
1773200115964894000,7.39189404296875,8.10437297821045,3.0621838569641113,-3.9193081855773926
1773200115980916000,7.407916015625,7.881711959838867,2.6839001178741455,-3.584120035171509
1773200115996907300,7.4239072265625,8.044517517089844,2.248155355453491,-3.272873640060425
1773200116012898300,7.439898193359375,8.157045364379883,1.8579005002975464,-2.9448680877685547
1773200116028919000,7.4559189453125,8.334216117858887,1.6519991159439087,-2.734178304672241
1773200116044911600,7.47191162109375,8.324639320373535,1.5442601442337036,-2.7964274883270264
1773200116060902000,7.48790185546875,8.152256965637207,1.522712230682373,-2.892195701599121
1773200116076893700,7.503893798828125,8.042123794555664,1.4245500564575195,-3.1507694721221924
1773200116092915200,7.519915283203125,8.188169479370117,1.525106430053711,-3.711012601852417
1773200116108905700,7.53590576171875,8.133103370666504,1.7310078144073486,-4.244919776916504
1773200116124898000,7.55189794921875,7.790732383728027,2.1045033931732178,-4.422090530395508
1773200116140918300,7.567918212890625,7.390900611877441,2.52109432220459,-4.4723687171936035
1773200116156910600,7.58391064453125,7.5848307609558105,2.935291290283203,-4.58968448638916
1773200116172900900,7.59990087890625,8.267178535461426,3.220201253890991,-4.707000732421875
1773200116188891100,7.61589111328125,8.803479194641113,3.3949780464172363,-4.714183330535889
1773200116204912600,7.63191259765625,9.011775016784668,3.421314239501953,-4.496310710906982
1773200116220905200,7.6479052734375,8.98543930053711,3.3279404640197754,-4.201824188232422
1773200116236897000,7.66389697265625,8.829815864562988,3.270479440689087,-3.936067581176758
1773200116252916700,7.679916748046875,8.762778282165527,3.1459810733795166,-3.7612907886505127
1773200116268907300,7.6959072265625,8.882488250732422,2.964021682739258,-3.6535518169403076
1773200116284901600,7.711901611328125,9.210494041442871,2.8227639198303223,-3.620033025741577
1773200116300893000,7.727892822265625,9.23682975769043,2.650381326675415,-3.4189200401306152
1773200116316921900,7.743921875,8.916007041931152,2.63362193107605,-3.181894063949585
1773200116332904200,7.759904296875,8.53532886505127,2.7078421115875244,-3.378218650817871
1773200116348897500,7.7758974609375,8.453926086425781,2.8155810832977295,-3.5625722408294678
1773200116364918500,7.79191845703125,8.528146743774414,2.695871114730835,-3.488351821899414
1773200116380908300,7.807908203125,8.851364135742188,2.8227639198303223,-3.7014358043670654
1773200116392901400,7.8199013671875,8.808267593383789,2.9759926795959473,-3.9169139862060547
1773200116408894000,7.83589404296875,8.523358345031738,3.2321722507476807,-4.101267337799072
1773200116420917800,7.847917724609375,8.449137687683105,3.380612850189209,-4.108449935913086
1773200116432910300,7.859910400390625,8.540117263793945,3.4572272300720215,-4.10366153717041
1773200116448900400,7.875900390625,8.504204750061035,3.3686418533325195,-4.378994941711426
1773200116464892000,7.891891845703125,8.923190116882324,3.2776620388031006,-4.608838081359863
1773200116480914400,7.90791455078125,9.677363395690918,2.9065608978271484,-4.446032524108887
1773200116496907500,7.923907470703125,10.735600471496582,2.456450939178467,-4.010287761688232
1773200116508900600,7.935900634765625,11.152191162109375,2.190694570541382,-3.5865142345428467
1773200116520893000,7.947892822265625,11.190498352050781,2.0398597717285156,-3.201047658920288
1773200116532916500,7.95991650390625,11.022904396057129,1.9129672050476074,-2.868253707885742
1773200116548907500,7.975907470703125,10.663774490356445,2.013523578643799,-2.674323320388794
1773200116560902000,7.98790185546875,10.20887565612793,2.1356279850006104,-2.671929121017456
1773200116576894200,8.003894287109375,9.363722801208496,2.1930887699127197,-2.6647465229034424
1773200116588918000,8.01591796875,8.901641845703125,2.279279947280884,-2.676717519760132
1773200116600910300,8.027910400390626,8.283937454223633,2.3247697353363037,-2.691082715988159
1773200116616900400,8.043900390625,7.841010570526123,2.2625205516815186,-2.6216509342193604
1773200116628895700,8.055895751953125,7.673416614532471,2.166752576828003,-2.5474305152893066
1773200116640918300,8.067918212890625,7.565677165985107,2.0398597717285156,-2.4827871322631836
1773200116656909300,8.083909423828125,7.371747016906738,1.8962076902389526,-2.583343744277954
1773200116672899300,8.0998994140625,7.603984832763672,1.7836803197860718,-2.80361008644104
1773200116688890600,8.115890625,8.267178535461426,1.678335428237915,-2.7892448902130127
1773200116700915700,8.127915771484375,9.126696586608887,1.6304513216018677,-2.5689783096313477
1773200116712909000,8.139908935546876,10.103530883789062,1.460463047027588,-2.6575639247894287
1773200116728900000,8.155900146484376,10.579977035522461,1.482010841369629,-2.564189910888672
1773200116744891400,8.171891357421876,10.029311180114746,1.742978811264038,-2.2457611560821533
1773200116760912600,8.18791259765625,7.419631004333496,0.9624691009521484,-1.2641384601593018
1773200116772908000,8.199907958984374,8.83699893951416,2.63362193107605,-1.8746598958969116
1773200116788898000,8.21589794921875,9.41639518737793,2.719813108444214,-1.9632453918457031
1773200116800889900,8.227889892578125,9.313444137573242,2.473210334777832,-2.0159177780151367
1773200116816914000,8.243913818359376,9.148244857788086,2.9544448852539062,-3.1268274784088135
1773200116828906200,8.25590625,8.549694061279297,3.1435868740081787,-3.665522813796997
1773200116844898000,8.27189794921875,8.01339340209961,3.1507694721221924,-3.801992416381836
1773200116856892400,8.283892333984374,7.872135162353516,3.3423056602478027,-4.041412353515625
1773200116868915000,8.2959150390625,7.592013359069824,3.292027235031128,-3.7253777980804443
1773200116884905700,8.31190576171875,7.565677165985107,3.19865345954895,-3.287238836288452
1773200116900897500,8.3278974609375,7.766790390014648,3.2178070545196533,-2.9257144927978516
1773200116912920800,8.3399208984375,8.001421928405762,3.248931646347046,-3.069366693496704
1773200116928913000,8.355912841796876,8.662221908569336,3.3279404640197754,-3.8714241981506348
1773200116944904200,8.371904296875,9.081207275390625,3.4141316413879395,-4.022258758544922
1773200116956896800,8.383896728515625,8.87051773071289,3.404554843902588,-4.122815132141113
1773200116972919000,8.3999189453125,8.760383605957031,3.512293815612793,-4.359841346740723
1773200116988911900,8.415911865234374,8.698134422302246,3.646369218826294,-4.390965938568115
1773200117004901600,8.431901611328126,8.370129585266113,3.7205893993377686,-4.077325344085693
1773200117020894000,8.44789404296875,8.123526573181152,3.825934410095215,-3.8307228088378906
1773200117036915000,8.4639150390625,7.908048152923584,3.890577793121338,-3.620033025741577
1773200117052904700,8.47990478515625,7.556100368499756,3.9671921730041504,-3.533841609954834
1773200117068897000,8.49589697265625,7.407660007476807,4.110844135284424,-3.780444383621216
1773200117080890000,8.50789013671875,7.50582218170166,4.129997730255127,-3.6583402156829834
1773200117096913200,8.5239130859375,7.661445617675781,3.737348794937134,-3.1651346683502197
1773200117108904700,8.53590478515625,7.793126583099365,3.399766445159912,-2.5953147411346436
1773200117124897300,8.551897216796876,7.762001991271973,3.162740468978882,-2.0183119773864746
1773200117140919800,8.567919921875,8.291120529174805,2.851494312286377,-1.8195933103561401
1773200117156910600,8.58391064453125,8.913613319396973,2.631227731704712,-1.6855180263519287
1773200117172900000,8.599900146484375,9.275136947631836,2.5522189140319824,-1.3934253454208374
1773200117188893700,8.615893798828125,9.445125579833984,2.6024973392486572,-1.2330138683319092
1773200117204913400,8.631913330078126,9.636661529541016,2.631227731704712,-1.1204863786697388
1773200117220905700,8.64790576171875,9.564835548400879,2.7964274883270264,-0.9026140570640564
1773200117236896000,8.66389599609375,8.987833023071289,3.004723072052002,-0.6512228846549988
1773200117252918000,8.67991796875,8.585607528686523,3.1268274784088135,-0.3734954595565796
1773200117268910600,8.69591064453125,8.851364135742188,3.07415509223938,-0.3663128614425659
1773200117284900000,8.711900146484375,9.239224433898926,3.093308687210083,-0.4405331015586853
1773200117296894200,8.723894287109376,9.370905876159668,3.1483752727508545,-0.49559974670410156
1773200117312915000,8.7399150390625,9.461885452270508,3.184288263320923,-0.5003881454467773
1773200117328906200,8.75590625,9.318233489990234,3.251325845718384,-0.4668693244457245
1773200117344896500,8.771896484375,9.014169692993164,3.2632968425750732,-0.26815059781074524
1773200117360919600,8.78791943359375,8.619126319885254,3.445256233215332,-0.19393034279346466
1773200117376910000,8.80391015625,8.628703117370605,3.5673606395721436,-0.19632454216480255
1773200117392901600,8.819901611328126,8.803479194641113,3.485957622528076,-0.08858546614646912
1773200117408893000,8.835892822265626,8.999804496765137,3.514688014984131,-0.6536170840263367
1773200117420915500,8.84791552734375,9.368511199951172,3.509899616241455,-1.3287819623947144
1773200117436909000,8.863908935546876,9.880870819091797,3.576937437057495,-1.357512354850769
1773200117452900000,8.879900146484376,10.036493301391602,3.576937437057495,-0.7469909191131592
1773200117468892000,8.895891845703124,10.070012092590332,3.6152446269989014,-0.6177040338516235
1773200117484913000,8.911912841796875,10.299856185913086,3.581725835800171,-0.5099649429321289
1773200117500903400,8.9279033203125,10.953473091125488,3.4332852363586426,-0.5386953949928284
1773200117516895200,8.943895263671875,11.587936401367188,3.1747114658355713,-0.7613561153411865
1773200117532918000,8.95991796875,11.444284439086914,3.047818660736084,-0.9265560507774353
1773200117548907500,8.975907470703126,10.450690269470215,3.162740468978882,-1.015141487121582
1773200117564899000,8.991899169921876,9.524134635925293,3.3279404640197754,-0.8044517636299133
1773200117580920300,9.00792041015625,9.119514465332031,3.421314239501953,-0.6560112833976746
1773200117596911000,9.0239111328125,8.858546257019043,3.579331636428833,-0.5817909836769104
1773200117612904200,9.039904296875,8.427590370178223,3.6152446269989014,-0.3758896589279175
1773200117628894200,9.055894287109375,8.578424453735352,3.643975019454956,-0.4357447028160095
1773200117644916200,9.071916259765626,9.41400146484375,3.536235809326172,-0.8331822156906128
1773200117660908300,9.087908203125,10.450690269470215,3.469198226928711,-1.2545616626739502
1773200117676899800,9.10389990234375,10.824186325073242,3.28963303565979,-1.580173134803772
1773200117688890000,9.11589013671875,10.575188636779785,3.0190882682800293,-1.7884687185287476
1773200117700915700,9.127915771484375,10.27591323852539,2.741360902786255,-1.721431016921997
1773200117712910000,9.13991015625,9.59835433959961,2.406172752380371,-1.6927006244659424
1773200117724902700,9.151902587890625,8.975862503051758,2.190694570541382,-1.5729905366897583
1773200117740893700,9.167893798828125,8.092401504516602,2.166752576828003,-1.094150185585022
1773200117752919000,9.1799189453125,7.450755596160889,2.231395959854126,-0.8379706144332886
1773200117764911600,9.19191162109375,7.223306655883789,2.2361843585968018,-0.9241618514060974
1773200117780903200,9.207903076171876,7.481880187988281,2.145204782485962,-1.338358759880066
1773200117796893700,9.223893798828126,7.754819393157959,2.049436569213867,-1.9967641830444336
1773200117812914200,9.2399140625,7.905653953552246,1.900996208190918,-2.454056739807129
1773200117824907000,9.251906982421875,8.44195556640625,2.164358377456665,-2.4013843536376953
1773200117840899800,9.26789990234375,9.215282440185547,2.5115175247192383,-2.738966703414917
1773200117856890600,9.283890625,9.476250648498535,2.671929121017456,-3.2968156337738037
1773200117868912600,9.29591259765625,9.227252960205078,2.8155810832977295,-3.421314239501953
1773200117884904400,9.311904541015625,8.908824920654297,3.0190882682800293,-3.383007049560547
1773200117896899000,9.323899169921875,8.738836288452148,3.098097085952759,-3.203441858291626
1773200117912890400,9.339890380859375,8.365341186523438,3.404554843902588,-3.0861260890960693
1773200117924915700,9.351915771484375,8.17380428314209,3.7493197917938232,-3.318363666534424
1773200117940906500,9.367906494140625,7.812280178070068,4.10366153717041,-3.6535518169403076
1773200117956897300,9.383897216796875,7.4100542068481445,4.326322555541992,-3.670311212539673
1773200117968889000,9.39588916015625,7.491456985473633,4.436455726623535,-3.624821424484253
1773200117984911600,9.41191162109375,7.673416614532471,4.422090530395508,-3.825934410095215
1773200118000901600,9.427901611328124,7.671022415161133,4.290409564971924,-3.847482204437256
1773200118012896300,9.439896240234376,7.814674377441406,4.271255970001221,-3.648763418197632
1773200118028918000,9.45591796875,8.389283180236816,4.043806552886963,-3.2752678394317627
1773200118040910000,9.46791015625,8.734047889709473,3.6750996112823486,-3.1507694721221924
1773200118056904400,9.483904541015624,8.705317497253418,2.7676970958709717,-2.408566951751709
1773200118072894200,9.499894287109376,8.315062522888184,3.9049429893493652,-3.3303346633911133
1773200118084917000,9.5119169921875,7.797914981842041,3.9217023849487305,-3.1435868740081787
1773200118100910000,9.52791015625,7.623138427734375,3.0789434909820557,-2.0254945755004883
1773200118112903000,9.53990283203125,7.594407558441162,2.9759926795959473,-1.7573440074920654
1773200118124897300,9.551897216796876,7.443572998046875,2.959233283996582,-2.126051187515259
1773200118140917500,9.56791748046875,7.005434036254883,2.935291290283203,-2.80361008644104
1773200118152910800,9.579910888671876,6.7061591148376465,2.853888511657715,-3.098097085952759
1773200118168900600,9.595900634765625,6.387730121612549,2.964021682739258,-3.4356794357299805
1773200118184893700,9.611893798828126,6.038176536560059,3.0142998695373535,-3.627215623855591
1773200118200915200,9.627915283203125,5.760449409484863,2.985569477081299,-3.6607344150543213
1773200118212908000,9.639907958984375,5.95677375793457,2.8993782997131348,-3.73016619682312
1773200118228898300,9.655898193359375,5.22175407409668,2.6647465229034424,-4.3406877517700195
1773200118240892200,9.66789208984375,4.60165548324585,2.38462495803833,-5.140350818634033
1773200118256915000,9.6839150390625,5.489904403686523,2.980781078338623,-6.430825710296631
1773200118272906200,9.69990625,6.890512466430664,3.3925838470458984,-7.247248649597168
1773200118288896500,9.715896484375,8.305485725402832,3.155557870864868,-7.307103633880615
1773200118304918800,9.731918701171875,9.332598686218262,3.0526070594787598,-7.048529624938965
1773200118316913400,9.743913330078126,9.071630477905273,3.045424461364746,-7.007828235626221
1773200118328906000,9.755906005859375,7.307103633880615,2.6240451335906982,-7.3669586181640625
1773200118344898300,9.771898193359375,5.413290023803711,2.964021682739258,-5.856217384338379
1773200118360919600,9.78791943359375,3.914519786834717,2.849100112915039,-4.513070106506348
1773200118376911400,9.803911376953126,3.3494882583618164,2.2577321529388428,-4.400542736053467
1773200118388903000,9.81590283203125,3.4548330307006836,1.9345149993896484,-5.592854976654053
1773200118404895700,9.831895751953125,4.252102375030518,1.7262194156646729,-6.971915245056152
1773200118420917800,9.847917724609376,4.424484729766846,1.4221558570861816,-6.921637058258057
1773200118436909000,9.863908935546876,3.928884983062744,0.9624691009521484,-6.155492782592773
1773200118452898800,9.87989892578125,2.6623523235321045,0.5267243981361389,-6.078877925872803
1773200118468890400,9.895890380859376,2.873042106628418,-0.009576806798577309,-5.044582843780518
1773200118484912000,9.911912109375,2.8802247047424316,-0.49559974670410156,-5.363011837005615
1773200118500904000,9.927904052734375,2.9664158821105957,-0.8882488012313843,-5.331887245178223
1773200118516894500,9.94389453125,2.1571757793426514,-1.259350061416626,-5.032611846923828
1773200118528917200,9.955917236328125,0.7709329724311829,-1.800439715385437,-5.420472621917725
1773200118544910300,9.971910400390625,-0.5626373887062073,-2.765302896499634,-7.206547260284424
1773200118560899000,9.987899169921874,-0.12210428714752197,-3.9240965843200684,-8.980650901794434
1773200118576893400,10.0038935546875,2.1116859912872314,-4.608838081359863,-9.23443603515625
1773200118588917500,10.01591748046875,3.667917013168335,-4.78122091293335,-9.093177795410156
1773200118604908300,10.031908203125,3.912125587463379,-4.946420669555664,-10.163386344909668
1773200118620899000,10.047899169921875,1.9752163887023926,-5.473145008087158,-12.172121047973633
1773200118636889300,10.063889404296875,-0.09576806426048279,-5.698200225830078,-14.190433502197266
1773200118652912400,10.079912353515626,-1.015141487121582,-5.889736175537109,-14.681244850158691
1773200118668904000,10.095904052734374,-0.47644615173339844,-5.681440830230713,-13.737929344177246
1773200118684893700,10.111893798828126,0.6607996821403503,-5.418078422546387,-13.51766300201416
1773200118696918500,10.12391845703125,1.2641384601593018,-5.295974254608154,-13.433865547180176
1773200118712906800,10.13990673828125,1.4772224426269531,-5.197812080383301,-12.880805015563965
1773200118728899600,10.155899658203126,1.7357962131500244,-5.063736438751221,-12.24155330657959
1773200118744889300,10.171889404296875,1.8698714971542358,-4.982333660125732,-11.310209274291992
1773200118760911400,10.187911376953124,1.7621324062347412,-5.329493045806885,-10.869675636291504
1773200118772905500,10.199905517578125,1.7262194156646729,-5.463568210601807,-11.621455192565918
1773200118784897800,10.211897705078124,1.9991583824157715,-5.506663799285889,-12.325350761413574
1773200118800889000,10.22788916015625,2.734178304672241,-5.339069843292236,-12.050017356872559
1773200118812915000,10.2399150390625,3.201047658920288,-4.51067590713501,-11.954249382019043
1773200118828908300,10.255908203125,2.276885747909546,-2.9903578758239746,-12.538434028625488
1773200118840897000,10.26789697265625,1.2066776752471924,-3.0166940689086914,-14.319720268249512
1773200118856891600,10.2838916015625,0.4884171485900879,-3.620033025741577,-16.84320831298828
1773200118872910800,10.299910888671874,0.5506663918495178,-3.9217023849487305,-17.228675842285156
1773200118888903700,10.315903564453125,1.6974890232086182,-3.7014358043670654,-14.700398445129395
1773200118900897000,10.32789697265625,2.3942017555236816,-3.8115692138671875,-12.84968090057373
1773200118916919300,10.343919189453125,2.3750481605529785,-3.7158010005950928,-11.39161205291748
1773200118928912000,10.355911865234376,2.1308395862579346,-3.706224203109741,-10.90798282623291
1773200118940905000,10.367905029296875,2.011129379272461,-3.780444383621216,-10.812214851379395
1773200118956897300,10.383897216796875,1.7860745191574097,-3.6727054119110107,-11.154585838317871
1773200118968889300,10.395889404296875,1.5059528350830078,-3.552995204925537,-11.403582572937012
1773200118980915200,10.407915283203126,1.2832920551300049,-3.620033025741577,-11.197681427001953
1773200118992907300,10.4199072265625,1.1444283723831177,-3.931279182434082,-10.44350814819336
1773200119008898300,10.435898193359375,1.1779472827911377,-4.120420932769775,-9.260771751403809
1773200119020892200,10.44789208984375,1.139639973640442,-4.225766181945801,-8.719682693481445
1773200119036913400,10.463913330078125,0.8738836050033569,-4.474762916564941,-8.250418663024902
1773200119052905700,10.47990576171875,0.5482721924781799,-4.707000732421875,-7.9846625328063965
1773200119068896000,10.49589599609375,0.23702596127986908,-4.972756862640381,-8.008605003356934
1773200119080889300,10.507889404296876,-0.10534487664699554,-5.16429328918457,-8.197746276855469
1773200119096912600,10.52391259765625,-0.4884171485900879,-5.279214859008789,-8.396465301513672
1773200119108906200,10.53590625,-0.6416460275650024,-5.322310447692871,-8.537723541259766
1773200119124895500,10.5518955078125,-0.6224924325942993,-5.339069843292236,-8.53293514251709
1773200119140916700,10.567916748046875,-0.6153098344802856,-5.274426460266113,-8.458714485168457
1773200119156907800,10.58390771484375,-0.7374141216278076,-5.125985622406006,-8.520963668823242
1773200119172900900,10.59990087890625,-1.1803414821624756,-4.977545261383057,-8.547300338745117
1773200119188889900,10.615889892578124,-1.7357962131500244,-5.011064052581787,-8.777143478393555
1773200119204913200,10.6319130859375,-2.2170307636260986,-4.994304656982422,-8.681375503540039
1773200119220904000,10.647904052734376,-2.6168625354766846,-5.097255229949951,-8.166622161865234
1773200119232897800,10.659897705078125,-2.8371291160583496,-5.240907669067383,-7.716512203216553
1773200119248886800,10.67588671875,-3.1076738834381104,-5.331887245178223,-7.273584842681885
1773200119264908800,10.69190869140625,-3.1244332790374756,-5.492298603057861,-6.971915245056152
1773200119280902000,10.70790185546875,-2.894589900970459,-5.260061264038086,-7.443572998046875
1773200119296892700,10.723892578125,-2.9927520751953125,-5.286397457122803,-7.627926826477051
1773200119312913000,10.739912841796874,-2.7533318996429443,-5.631162166595459,-8.152256965637207
1773200119324908500,10.751908447265626,-2.5953147411346436,-5.870582580566406,-8.451532363891602
1773200119340898800,10.76789892578125,-2.5522189140319824,-6.301538944244385,-8.832210540771484
1773200119356892000,10.783891845703126,-2.3511061668395996,-6.660669326782227,-9.41400146484375
1773200119372911900,10.799911865234375,-2.0039467811584473,-6.8043212890625,-9.919178009033203
1773200119388902700,10.815902587890625,-1.5873557329177856,-6.6391215324401855,-10.273519515991211
1773200119400896300,10.827896240234375,-0.9983820915222168,-6.299144744873047,-10.287884712219238
1773200119416942600,10.843942626953124,-0.2106897532939911,-5.442020416259766,-10.228029251098633
1773200119432933400,10.859933349609374,0.11252748221158981,-4.520252704620361,-10.287884712219238
1773200119444928000,10.871927978515625,0.1173158809542656,-3.892971992492676,-10.33098030090332
1773200119460919300,10.887919189453125,0.1628057211637497,-3.4332852363586426,-9.655815124511719
1773200119476940300,10.903940185546874,0.5003881454467773,-3.426102638244629,-8.324639320373535
1773200119492930300,10.919930419921876,0.5482721924781799,-3.624821424484253,-7.16584587097168
1773200119508922600,10.935922607421874,0.1388636976480484,-4.065354347229004,-6.560112476348877
1773200119524944100,10.951944091796875,-0.2801215946674347,-4.201824188232422,-6.5481414794921875
1773200119540936400,10.9679365234375,-0.6512228846549988,-4.534617900848389,-7.570465564727783
1773200119556926200,10.98392626953125,-1.0989385843276978,-5.027823448181152,-8.35097599029541
1773200119572916500,10.99991650390625,-1.4724340438842773,-5.681440830230713,-8.463502883911133
1773200119584939800,11.011939697265625,-1.5969325304031372,-6.107608318328857,-8.288725852966309
1773200119600931300,11.027931396484375,-1.6519991159439087,-6.428431510925293,-8.020575523376465
1773200119612927500,11.039927490234374,-1.723825216293335,-6.349422931671143,-7.544129371643066
1773200119628917000,11.0559169921875,-1.3910311460494995,-6.026205539703369,-7.297526836395264
1773200119644939300,11.071939208984375,-0.40462008118629456,-5.415684223175049,-7.393294811248779
1773200119660930300,11.087930419921875,-0.05027823522686958,-4.903325080871582,-7.580042362213135
1773200119676920800,11.1039208984375,-0.08379705995321274,-4.637568473815918,-7.68538761138916
1773200119692942800,11.11994287109375,-0.4572925269603729,-4.410119533538818,-7.733271598815918
1773200119708936400,11.1359365234375,-1.5059528350830078,-4.395754337310791,-7.560888767242432
1773200119724927000,11.151927001953124,-2.7940332889556885,-4.455609321594238,-7.287950038909912
1773200119740918300,11.167918212890624,-3.5960910320281982,-4.431667327880859,-7.079654216766357
1773200119756939500,11.183939453125,-4.062960147857666,-4.410119533538818,-7.010222434997559
1773200119772929800,11.1999296875,-4.225766181945801,-4.256890773773193,-7.000645637512207
1773200119788920800,11.2159208984375,-3.8810009956359863,-4.175487995147705,-7.266402244567871
1773200119800913200,11.2279130859375,-3.4787750244140625,-4.1874589920043945,-7.395689010620117
1773200119812939500,11.239939453125,-3.0142998695373535,-4.213795185089111,-7.422025203704834
1773200119824931300,11.251931396484375,-2.535459518432617,-4.170699596405029,-7.38132381439209
1773200119836925700,11.26392578125,-2.0829553604125977,-4.173093795776367,-7.319074630737305
1773200119852915200,11.279915283203126,-1.5705963373184204,-4.23773717880249,-7.2352776527404785
1773200119868938000,11.29593798828125,-1.1994950771331787,-4.347870349884033,-7.247248649597168
1773200119884930800,11.311930908203125,-0.7445967197418213,-4.417302131652832,-7.359776020050049
1773200119900922000,11.327922119140625,-0.667982280254364,-4.58968448638916,-7.773972988128662
1773200119916943600,11.343943603515624,-0.8331822156906128,-4.81473970413208,-8.209717750549316
1773200119928935700,11.355935791015625,-0.9289502501487732,-4.963180065155029,-8.554482460021973
1773200119940929800,11.3679296875,-0.9026140570640564,-5.109226226806641,-8.947132110595703
1773200119952922600,11.379922607421875,-0.8259995579719543,-5.125985622406006,-9.387664794921875
1773200119964916000,11.391916015625,-0.7996633648872375,-5.114014625549316,-9.775525093078613
1773200119980938200,11.407938232421875,-1.1348515748977661,-4.9152960777282715,-10.256759643554688
1773200119992930600,11.4199306640625,-1.5873557329177856,-4.7405195236206055,-10.517727851867676
1773200120008920600,11.435920654296876,-2.3247697353363037,-4.553771495819092,-10.491392135620117
1773200120024913700,11.45191357421875,-2.96162748336792,-5.066130638122559,-10.54645824432373
1773200120040934700,11.4679345703125,-3.485957622528076,-5.75326681137085,-10.54406452178955
1773200120056927700,11.483927734375,-3.557783842086792,-5.95677375793457,-10.24239444732666
1773200120072916200,11.499916259765625,-3.1435868740081787,-6.133944988250732,-10.338163375854492
1773200120088939500,11.515939453125,-2.580949544906616,-6.074089527130127,-10.900800704956055
1773200120100931800,11.527931884765625,-2.169146776199341,-5.851428985595703,-11.298237800598145
1773200120116925700,11.54392578125,-1.5538369417190552,-5.25527286529541,-11.501745223999023
1773200120132914000,11.559913818359375,-1.0965443849563599,-4.455609321594238,-11.094730377197266
1773200120148935200,11.57593505859375,-0.608127236366272,-4.141968727111816,-10.33098030090332
1773200120164929300,11.59192919921875,-0.21308395266532898,-4.1874589920043945,-9.32302188873291
1773200120180920800,11.6079208984375,0.07182604819536209,-4.321534156799316,-8.44195556640625
1773200120196942600,11.623942626953125,0.002394201699644327,-4.505887508392334,-7.738059997558594
1773200120212932000,11.63993212890625,-0.2106897532939911,-4.60165548324585,-7.0772600173950195
1773200120228923600,11.655923583984375,-0.3878606855869293,-4.745307922363281,-6.756437301635742
1773200120244914000,11.671913818359375,-0.4692635238170624,-4.891354084014893,-6.572083473205566
1773200120260936400,11.6879365234375,-0.28730419278144836,-5.276820659637451,-6.469132900238037
1773200120272929000,11.699928955078125,0.17956513166427612,-5.671864032745361,-6.385335922241211
1773200120288920000,11.715920166015625,0.9433154463768005,-5.983109951019287,-6.36378812789917
1773200120304912000,11.731911865234375,1.6208745241165161,-6.2392897605896,-6.646304130554199
1773200120320932900,11.747932861328126,2.078166961669922,-6.323086738586426,-6.971915245056152
1773200120332928800,11.7599287109375,2.300827741622925,-6.2416839599609375,-7.271190643310547
1773200120348918500,11.77591845703125,2.5737667083740234,-6.13633918762207,-7.618350028991699
1773200120364941800,11.79194189453125,2.7006595134735107,-5.74129581451416,-8.003816604614258
1773200120380933000,11.80793310546875,2.492363929748535,-5.1331682205200195,-8.525752067565918
1773200120396924700,11.823924560546875,1.824381709098816,-4.632780075073242,-9.27034854888916
1773200120412913200,11.8399130859375,0.7254431247711182,-4.532223701477051,-9.636661529541016
1773200120424938000,11.85193798828125,-0.15083470940589905,-4.711789131164551,-9.277531623840332
1773200120440928500,11.867928466796876,-0.8188169598579407,-4.898536682128906,-8.365341186523438
1773200120452922400,11.87992236328125,-0.950498104095459,-4.967968463897705,-7.55131196975708
1773200120468916000,11.895916015625,-0.9145850539207458,-4.948814868927002,-6.840234279632568
1773200120484936400,11.9119365234375,-0.7852981686592102,-4.90571928024292,-6.653486728668213
1773200120500927700,11.927927734375,-0.8619126081466675,-4.903325080871582,-7.024587631225586
1773200120512920300,11.93992041015625,-0.9074024558067322,-4.965574264526367,-7.254431247711182
1773200120524944000,11.95194384765625,-0.8595184087753296,-5.049371242523193,-7.311892032623291
1773200120540935000,11.967934814453125,-0.6560112833976746,-5.145139217376709,-7.19936466217041
1773200120552928000,11.979927978515626,-0.4141969084739685,-5.276820659637451,-7.16584587097168
1773200120568920300,11.99592041015625,-0.10773907601833344,-5.281609058380127,-7.2352776527404785
1773200120584940000,12.01193994140625,0.05267243832349777,-5.147533416748047,-7.805097579956055
1773200120600932900,12.027932861328125,-0.0694318488240242,-4.982333660125732,-8.504204750061035
1773200120616926000,12.043926025390626,-0.646434485912323,-4.8051629066467285,-9.033323287963867
1773200120632915700,12.059915771484375,-1.3335703611373901,-4.685452938079834,-9.224859237670898
1773200120648936200,12.075936279296876,-1.7812861204147339,-4.714183330535889,-9.141061782836914
1773200120660930800,12.087930908203125,-1.8842366933822632,-4.661510944366455,-9.174580574035645
1773200120676924000,12.103923828125,-1.7812861204147339,-4.584896087646484,-9.466673851013184
1773200120692943600,12.119943603515624,-1.8555063009262085,-4.692635536193848,-10.06043529510498
1773200120708935700,12.135935791015624,-1.9800047874450684,-4.711789131164551,-10.54406452178955
1773200120720927700,12.147927734375,-2.0685901641845703,-4.69024133682251,-10.864887237548828
1773200120736919000,12.1639189453125,-1.9847931861877441,-4.970362663269043,-11.33654499053955
1773200120752940000,12.17993994140625,-2.169146776199341,-5.475539207458496,-11.314997673034668
1773200120768932000,12.19593212890625,-2.118868589401245,-5.731719017028809,-11.173739433288574
1773200120780926200,12.20792626953125,-1.7525556087493896,-5.846640586853027,-11.367670059204102
1773200120792921000,12.219921142578125,-1.4245500564575195,-5.882553577423096,-11.623848915100098
1773200120808941000,12.235941162109375,-0.8667010068893433,-5.427655220031738,-11.623848915100098
1773200120824933000,12.25193310546875,-0.0071826050989329815,-4.37420654296875,-11.461043357849121
1773200120840925000,12.267925048828126,0.8092401623725891,-3.224989652633667,-11.051634788513184
1773200120856914700,12.283914794921875,1.1492167711257935,-2.801215887069702,-10.539276123046875
1773200120868938200,12.295938232421875,1.1228805780410767,-2.9688100814819336,-9.500192642211914
1773200120884929800,12.3119296875,0.8834604024887085,-3.840299606323242,-7.905653953552246
1773200120900922000,12.327922119140625,0.7086837291717529,-4.675876140594482,-6.7708024978637695
1773200120916913000,12.343912841796875,0.31124621629714966,-5.432443618774414,-6.203376770019531
1773200120932935400,12.359935302734375,-0.24899697303771973,-6.090848922729492,-6.121973514556885
1773200120948925200,12.37592529296875,-0.6775590777397156,-6.426037311553955,-6.528987884521484
1773200120964919000,12.3919189453125,-0.9720458984375,-6.687005519866943,-7.194576263427734
1773200120980939000,12.40793896484375,-1.0989385843276978,-6.653486728668213,-7.299921035766602
1773200120992930800,12.419930908203124,-1.0462661981582642,-6.576871871948242,-6.962338447570801
1773200121008921600,12.435921630859376,-0.6560112833976746,-6.102819919586182,-6.385335922241211
1773200121024914200,12.4519140625,-0.10295066982507706,-5.413290023803711,-6.3733649253845215
1773200121040934700,12.4679345703125,-0.05746084079146385,-4.845864295959473,-6.892906665802002
1773200121056927700,12.483927734375,-0.6775590777397156,-4.580107688903809,-7.151480674743652
1773200121072917500,12.49991748046875,-1.3120225667953491,-4.378994941711426,-7.225700855255127
1773200121084941000,12.511941162109375,-1.699883222579956,-4.307168960571289,-7.309497833251953
1773200121100931800,12.527931884765625,-2.3271639347076416,-4.247313976287842,-7.601590633392334
1773200121112925400,12.539925537109376,-2.827552318572998,-4.177882194519043,-7.704541206359863
1773200121128918500,12.55591845703125,-3.1938650608062744,-4.173093795776367,-7.4316020011901855
1773200121144938500,12.5719384765625,-3.162740468978882,-4.106055736541748,-7.050923824310303
1773200121160930600,12.5879306640625,-2.7485435009002686,-3.952826976776123,-7.228095054626465
1773200121172924000,12.599923828125,-2.229001760482788,-3.8810009956359863,-7.534552574157715
1773200121184918300,12.611918212890625,-1.7310078144073486,-3.799597978591919,-7.548917770385742
1773200121196943400,12.623943359375,-1.381454348564148,-3.845088005065918,-7.376535415649414
1773200121212933000,12.63993310546875,-1.1468225717544556,-3.9193081855773926,-7.1921820640563965
1773200121228926000,12.655926025390626,-1.137245774269104,-3.9432501792907715,-7.261613845825195
1773200121244914700,12.671914794921875,-1.2976573705673218,-3.97916316986084,-7.752425193786621
1773200121260939000,12.68793896484375,-1.5203180313110352,-4.134786128997803,-8.022970199584961
1773200121276930000,12.703929931640625,-1.6280571222305298,-4.3622355461120605,-8.62391471862793
1773200121288920800,12.7159208984375,-1.8124107122421265,-4.702212333679199,-9.21288776397705
1773200121304913400,12.731913330078125,-2.03507137298584,-5.140350818634033,-9.86650562286377
1773200121320935000,12.747934814453124,-2.0374655723571777,-5.537788391113281,-10.47942066192627
1773200121336927200,12.76392724609375,-2.166752576828003,-5.382165431976318,-10.78348445892334
1773200121352916000,12.779916015625,-2.2864625453948975,-5.1116204261779785,-10.879252433776855
1773200121364941300,12.79194140625,-2.4133553504943848,-5.17626428604126,-11.05642318725586
1773200121380932400,12.807932373046874,-2.58813214302063,-5.652710437774658,-10.848128318786621
1773200121396925000,12.823925048828125,-2.6360161304473877,-6.023811340332031,-10.47942066192627
1773200121412944400,12.8399443359375,-2.4588451385498047,-6.378153324127197,-10.579977035522461
1773200121428937000,12.85593701171875,-2.4588451385498047,-6.507440090179443,-10.759542465209961
1773200121444929300,12.87192919921875,-2.2361843585968018,-6.023811340332031,-11.154585838317871
1773200121456921600,12.883921630859374,-1.889025092124939,-5.434837818145752,-11.099518775939941
1773200121472941800,12.89994189453125,-1.158793568611145,-4.685452938079834,-10.445901870727539
1773200121488932600,12.9159326171875,-0.2561795711517334,-4.28322696685791,-9.75637149810791
1773200121504923600,12.931923583984375,0.49799394607543945,-4.247313976287842,-9.11233139038086
1773200121520916700,12.947916748046875,0.7158663272857666,-4.568136692047119,-8.406042098999023
1773200121536940300,12.963940185546875,0.3016694188117981,-4.881777286529541,-7.333439826965332
1773200121548931800,12.975931884765625,-0.05267243832349777,-5.044582843780518,-6.607996463775635
1773200121564925000,12.991925048828126,-0.3758896589279175,-5.276820659637451,-6.057330131530762
1773200121580913700,13.00791357421875,-0.5003881454467773,-5.51624059677124,-6.069301128387451
1773200121596937000,13.02393701171875,-0.26575639843940735,-5.829881191253662,-6.050147533416748
1773200121612925700,13.03992578125,0.181959331035614,-6.095637321472168,-6.064512729644775
1773200121628918800,13.055918701171874,0.6320692300796509,-6.234501361846924,-6.215347766876221
1773200121640943900,13.06794384765625,0.9409212470054626,-6.119579315185547,-6.66785192489624
1773200121652935700,13.079935791015625,1.4269442558288574,-5.9735331535339355,-7.163451671600342
1773200121668927000,13.095927001953125,1.98958158493042,-5.7125654220581055,-7.637503623962402
1773200121680918500,13.10791845703125,2.3032219409942627,-5.489904403686523,-7.750030994415283
1773200121696942600,13.123942626953125,2.537853717803955,-5.080495834350586,-7.910442352294922
1773200121708936200,13.135936279296875,2.1978771686553955,-4.505887508392334,-8.257601737976074
1773200121724926700,13.1519267578125,1.113303780555725,-4.1180267333984375,-9.634267807006836
1773200121736919800,13.163919921875,0.23702596127986908,-4.110844135284424,-10.287884712219238
1773200121752942000,13.179942138671874,-0.667982280254364,-4.431667327880859,-9.57201862335205
1773200121764936700,13.191936767578126,-0.8451532125473022,-4.637568473815918,-8.22887134552002
1773200121780926500,13.207926513671875,-0.6248866319656372,-4.841075897216797,-7.072471618652344
1773200121792918300,13.219918212890626,-0.3974374830722809,-4.93923807144165,-6.794744491577148
1773200121804915000,13.2319150390625,-0.20350714027881622,-4.920084476470947,-6.89530086517334
1773200121820936400,13.2479365234375,-0.040701430290937424,-4.9583916664123535,-7.295132637023926
1773200121836927000,13.263927001953125,-0.0071826050989329815,-5.0876784324646,-7.438784599304199
1773200121852916000,13.279916015625,0.016759412363171577,-5.200206279754639,-7.419631004333496
1773200121864942000,13.291942138671875,0.014365210197865963,-5.238513469696045,-7.402871608734131
1773200121880932600,13.3079326171875,0.23942017555236816,-5.085284233093262,-7.706935405731201
1773200121896925000,13.323925048828125,0.45250412821769714,-4.865017890930176,-8.192957878112793
1773200121912913200,13.3399130859375,0.26096799969673157,-4.778826713562012,-8.884882926940918
1773200121928936700,13.355936767578125,-0.31124621629714966,-4.721365928649902,-9.442731857299805
1773200121944927700,13.371927734375,-0.9672574996948242,-4.580107688903809,-9.758766174316406
1773200121956921900,13.383921875,-1.53707754611969,-4.55616569519043,-10.02691650390625
1773200121972941600,13.399941650390625,-2.300827741622925,-4.448426723480225,-10.220847129821777
1773200121988936000,13.41593603515625,-2.6455929279327393,-4.541800498962402,-10.484209060668945
1773200122004924700,13.431924560546875,-2.7533318996429443,-4.910507678985596,-10.972626686096191
1773200122020917000,13.4479169921875,-2.87064790725708,-5.353435039520264,-11.224017143249512
1773200122036939800,13.463939697265625,-2.671929121017456,-5.671864032745361,-11.473014831542969
1773200122052929500,13.479929443359374,-2.2816741466522217,-6.074089527130127,-11.63103199005127
1773200122068921000,13.495921142578124,-1.7980455160140991,-6.100425720214844,-11.614272117614746
1773200122084944600,13.511944580078126,-0.9050082564353943,-5.430049419403076,-11.33654499053955
1773200122096935700,13.523935791015624,-0.10534487664699554,-4.517858505249023,-11.1474027633667
1773200122112928800,13.5399287109375,0.5003881454467773,-3.512293815612793,-10.845733642578125
1773200122128917200,13.555917236328124,0.6775590777397156,-3.3423056602478027,-10.02452278137207
1773200122144940000,13.57193994140625,0.5674257874488831,-3.711012601852417,-8.446743965148926
1773200122156935400,13.583935302734375,0.44771572947502136,-4.299986362457275,-7.6782050132751465
1773200122172925000,13.599925048828124,0.12210428714752197,-5.070919036865234,-6.995857238769531
1773200122184918500,13.61191845703125,-0.28730419278144836,-5.513846397399902,-6.691793918609619
1773200122200939000,13.62793896484375,-0.8810662031173706,-5.920860767364502,-6.914454460144043
1773200122216932900,13.643932861328125,-1.4317326545715332,-6.428431510925293,-7.292738437652588
1773200122228926000,13.655926025390626,-1.6879122257232666,-6.701370716094971,-7.436390399932861
1773200122244917000,13.6719169921875,-1.7142484188079834,-6.71334171295166,-7.4100542068481445
1773200122260938200,13.687938232421875,-1.5849615335464478,-6.435614109039307,-7.187393665313721
1773200122276928500,13.703928466796874,-1.6376339197158813,-5.8203043937683105,-6.871358871459961
1773200122288921000,13.715921142578125,-1.460463047027588,-5.384559631347656,-6.9910688400268555
1773200122300915700,13.727915771484374,-1.2066776752471924,-5.061342239379883,-7.383718013763428
1773200122316937500,13.7439375,-1.292868971824646,-4.6471452713012695,-7.548917770385742
1773200122328930800,13.755930908203124,-1.9632453918457031,-4.484339714050293,-7.271190643310547
1773200122344922600,13.771922607421875,-2.8562827110290527,-4.369418144226074,-6.842628479003906
1773200122360912000,13.787911865234374,-3.469198226928711,-4.268861770629883,-6.275202751159668
1773200122372937700,13.799937744140625,-3.622427225112915,-4.256890773773193,-6.052541732788086
1773200122388928000,13.815927978515624,-3.6367924213409424,-4.252102375030518,-5.853823184967041
1773200122404919000,13.8319189453125,-3.2393548488616943,-4.357447147369385,-6.0621185302734375
1773200122420941600,13.847941650390625,-2.6623523235321045,-4.553771495819092,-6.327875137329102
1773200122436931000,13.86393115234375,-2.118868589401245,-4.637568473815918,-6.658275127410889
1773200122452924000,13.879923828125,-1.5873557329177856,-4.774038314819336,-6.943184852600098
1773200122468946000,13.89594580078125,-0.9888052940368652,-4.908113479614258,-6.979097843170166
1773200122484938000,13.91193798828125,-0.6631938815116882,-4.745307922363281,-7.108384609222412
1773200122500929500,13.927929443359375,-0.7230489253997803,-4.680664539337158,-7.4770917892456055
1773200122516920800,13.9439208984375,-1.015141487121582,-4.517858505249023,-7.675810813903809
1773200122532941300,13.95994140625,-1.3551181554794312,-4.350264549255371,-8.02536392211914
1773200122548931600,13.975931640625,-1.6400281190872192,-4.089296340942383,-8.346187591552734
1773200122564923100,13.991923095703125,-2.0470423698425293,-4.027047157287598,-8.585607528686523
1773200122580913200,14.0079130859375,-2.1763293743133545,-4.127603530883789,-8.863334655761719
1773200122592937200,14.019937255859375,-2.051830768585205,-4.1156325340271,-9.117119789123535
1773200122608928800,14.0359287109375,-2.2625205516815186,-4.220977783203125,-9.394847869873047
1773200122620923400,14.04792333984375,-2.0877439975738525,-4.230554580688477,-9.68933391571045
1773200122632915500,14.05991552734375,-1.9249382019042969,-4.218583583831787,-9.892841339111328
1773200122648938800,14.075938720703125,-1.9393033981323242,-4.434061527252197,-10.345345497131348
1773200122660932400,14.087932373046876,-2.070984363555908,-4.896142482757568,-10.764330863952637
1773200122672925700,14.09992578125,-2.298433542251587,-5.614402770996094,-11.042057991027832
1773200122684918000,14.11191796875,-2.5905263423919678,-6.3518171310424805,-11.1474027633667
1773200122700940500,14.1279404296875,-2.6815059185028076,-6.785167694091797,-11.18092155456543
1773200122716932900,14.143932861328125,-2.6240451335906982,-6.538564682006836,-11.559206008911133
1773200122728926500,14.155926513671876,-2.650381326675415,-6.007051944732666,-11.88002872467041
1773200122744917000,14.1719169921875,-2.387019157409668,-5.408501625061035,-12.102689743041992
1773200122760937200,14.187937255859374,-1.534683346748352,-5.085284233093262,-11.87763500213623
1773200122776929500,14.203929443359375,-0.4572925269603729,-4.49870491027832,-11.252747535705566
1773200122792920600,14.219920654296875,0.22744916379451752,-4.065354347229004,-10.979808807373047
1773200122808940500,14.2359404296875,0.06703764945268631,-4.031835556030273,-10.548852920532227
1773200122824932400,14.251932373046875,-0.524330198764801,-4.46518611907959,-9.445125579833984
1773200122836926700,14.2639267578125,-1.039083480834961,-4.771644115447998,-8.293514251708984
1773200122852917500,14.27991748046875,-1.5418659448623657,-5.049371242523193,-7.261613845825195
1773200122868940500,14.2959404296875,-1.558625340461731,-5.214571475982666,-6.689399719238281
1773200122884930300,14.311930419921875,-1.1061211824417114,-5.396530628204346,-6.296750545501709
1773200122896925200,14.32392529296875,-0.49559974670410156,-5.535394191741943,-6.107608318328857
1773200122912914200,14.3399140625,0.3280056416988373,-5.889736175537109,-6.203376770019531
1773200122928937700,14.355937744140626,1.1420341730117798,-6.361393928527832,-6.325480937957764
1773200122940932000,14.36793212890625,1.6543933153152466,-6.703764915466309,-6.311115741729736
1773200122956922000,14.383922119140625,2.3511061668395996,-7.062894821166992,-6.4834980964660645
1773200122968916700,14.395916748046876,2.698265314102173,-7.036558628082275,-6.660669326782227
1773200122980940300,14.407940185546876,2.9161376953125,-6.993463039398193,-7.060500621795654
1773200122992931800,14.419931884765624,2.964021682739258,-6.9024834632873535,-7.539340972900391
1773200123008923600,14.435923583984374,2.9664158821105957,-6.5050458908081055,-8.11634349822998
1773200123020918000,14.44791796875,2.829946517944336,-6.258443355560303,-8.362946510314941
1773200123036940300,14.463940185546875,2.161964178085327,-5.992686748504639,-8.195352554321289
1773200123052931300,14.479931396484375,1.216254472732544,-5.628767967224121,-7.884106159210205
1773200123068920300,14.49592041015625,0.16759411990642548,-5.317522048950195,-7.793126583099365
1773200123080914000,14.507913818359375,-0.6799532771110535,-5.0876784324646,-7.781155586242676
1773200123096938000,14.52393798828125,-1.7836803197860718,-4.944026470184326,-7.762001991271973
1773200123108929300,14.53592919921875,-2.406172752380371,-4.944026470184326,-7.632715225219727
1773200123120922400,14.54792236328125,-2.75812029838562,-5.011064052581787,-7.390900611877441
1773200123136916200,14.563916259765625,-2.82515811920166,-5.125985622406006,-6.828263282775879
1773200123152937200,14.579937255859376,-2.5115175247192383,-5.274426460266113,-6.605602264404297
1773200123168928000,14.595927978515626,-1.9943699836730957,-5.367800235748291,-6.833051681518555
1773200123180922000,14.607922119140625,-1.4772224426269531,-5.499481201171875,-7.218518257141113
1773200123196942800,14.62394287109375,-0.6488286852836609,-5.743690013885498,-7.747636795043945
1773200123208936400,14.6359365234375,-0.1412578970193863,-5.7987565994262695,-8.04930591583252
1773200123224927200,14.65192724609375,0.3232172429561615,-5.868188381195068,-8.02536392211914
1773200123240919300,14.667919189453125,0.4405331015586853,-5.861005783081055,-7.910442352294922
1773200123256942000,14.683942138671876,0.21787235140800476,-5.698200225830078,-7.891288757324219
1773200123272930600,14.6999306640625,-0.10055647045373917,-5.3797712326049805,-8.056488990783691
1773200123288923000,14.7159228515625,-0.47644615173339844,-5.188235282897949,-8.200140953063965
1773200123304943600,14.731943603515624,-0.9481038451194763,-4.95120906829834,-8.571242332458496
1773200123316939300,14.743939208984376,-1.278503656387329,-4.896142482757568,-8.628703117370605
1773200123332929300,14.75992919921875,-1.4963760375976562,-4.9152960777282715,-8.595184326171875
1773200123348920600,14.775920654296876,-1.316810965538025,-4.891354084014893,-8.528146743774414
1773200123364941800,14.79194189453125,-0.9026140570640564,-4.809951305389404,-8.712499618530273
1773200123376936400,14.8039365234375,-0.6655880808830261,-4.790797710418701,-8.899248123168945
1773200123392927000,14.819927001953126,-0.3519476354122162,-4.833893299102783,-9.215282440185547
1773200123404920300,14.83192041015625,-0.22505496442317963,-4.7836151123046875,-9.406818389892578
1773200123416946200,14.8439462890625,-0.1843535304069519,-4.69024133682251,-9.63187313079834
1773200123428939000,14.85593896484375,-0.22505496442317963,-4.623203277587891,-9.952696800231934
1773200123440932400,14.867932373046875,-0.19153612852096558,-4.613626480102539,-10.055646896362305
1773200123452924700,14.879924560546876,-0.2944868206977844,-4.67827033996582,-9.792284965515137
1773200123468914400,14.89591455078125,-0.3998316824436188,-4.807557106018066,-9.524134635925293
1773200123484938800,14.911938720703125,-0.37828385829925537,-4.876988887786865,-9.232041358947754
1773200123500928500,14.927928466796875,-0.24420857429504395,-4.793191909790039,-9.05487060546875
1773200123516920300,14.94392041015625,-0.11971008777618408,-4.72376012802124,-9.002198219299316
1773200123528943600,14.955943603515625,-0.10055647045373917,-4.709394931793213,-8.83699893951416
1773200123540938000,14.96793798828125,-0.08379705995321274,-4.7405195236206055,-8.645462036132812
1773200123556929800,14.9839296875,0.035913024097681046,-4.680664539337158,-8.468291282653809
1773200123572919600,14.99991943359375,0.1149216815829277,-4.608838081359863,-8.463502883911133
1773200123588941600,15.015941650390625,0.19153612852096558,-4.517858505249023,-8.44434928894043
1773200123600933600,15.02793359375,0.11013327538967133,-4.548983097076416,-8.492233276367188
1773200123612928500,15.039928466796875,-0.13168109953403473,-4.651933670043945,-8.650250434875488
1773200123628921000,15.055921142578125,-0.5051765441894531,-4.831499099731445,-8.920795440673828
1773200123644940800,15.07194091796875,-0.7254431247711182,-4.862623691558838,-9.069235801696777
1773200123660933600,15.08793359375,-0.8690952062606812,-4.776432514190674,-9.153033256530762
1773200123676924400,15.10392431640625,-1.0534487962722778,-4.663905143737793,-9.011775016784668
1773200123692946000,15.11994580078125,-1.3886369466781616,-4.541800498962402,-8.968679428100586
1773200123708936200,15.135936279296875,-1.41257905960083,-4.95120906829834,-8.683769226074219
1773200123724929500,15.151929443359375,-1.0582371950149536,-5.3342814445495605,-8.300697326660156
1773200123736922600,15.163922607421876,-0.6607996821403503,-5.66228723526001,-8.20492935180664
1773200123752942300,15.1799423828125,-0.3423708379268646,-5.832275390625,-7.967903137207031
1773200123764937700,15.191937744140626,-0.0454898327589035,-5.7125654220581055,-8.202534675598145
1773200123780927500,15.207927490234376,0.26815059781074524,-5.521028995513916,-8.62391471862793
1773200123796920300,15.22392041015625,-0.2298433631658554,-5.549759387969971,-8.631096839904785
1773200123812940300,15.239940185546875,-1.292868971824646,-5.710171222686768,-8.339004516601562
1773200123824933000,15.25193310546875,-2.0805611610412598,-5.748478412628174,-8.125920295715332
1773200123840924200,15.267924072265625,-3.0119056701660156,-5.789179801940918,-8.056488990783691
1773200123856916000,15.283916015625,-3.6846764087677,-5.640739440917969,-8.236053466796875
1773200123868942000,15.295942138671874,-4.211400985717773,-5.492298603057861,-8.413225173950195
1773200123884931300,15.311931396484376,-4.654327869415283,-5.114014625549316,-8.219294548034668
1773200123900924000,15.327923828125,-4.568136692047119,-4.745307922363281,-7.872135162353516
1773200123916915000,15.3439150390625,-4.4077253341674805,-4.350264549255371,-7.50582218170166
1773200123932937200,15.359937255859375,-4.395754337310791,-4.158728122711182,-7.359776020050049
1773200123948926000,15.375926025390624,-4.165910720825195,-4.108449935913086,-7.2783732414245605
1773200123960919300,15.387919189453125,-3.799597978591919,-4.108449935913086,-7.232883453369141
1773200123972944000,15.39994384765625,-3.4787750244140625,-4.14915132522583,-7.273584842681885
1773200123984936400,15.4119365234375,-3.222595453262329,-4.230554580688477,-7.297526836395264
1773200123996931800,15.423931884765626,-3.045424461364746,-4.28322696685791,-7.419631004333496
1773200124012921900,15.439921875,-2.9688100814819336,-4.378994941711426,-7.422025203704834
1773200124028943000,15.455943115234374,-2.8347349166870117,-4.563348293304443,-7.402871608734131
1773200124044935400,15.471935302734375,-2.6024973392486572,-4.716577529907227,-7.479485988616943
1773200124060926500,15.487926513671875,-2.296039342880249,-4.778826713562012,-7.869740962982178
1773200124076919600,15.50391943359375,-1.9081788063049316,-4.824316501617432,-8.14028549194336
1773200124092938500,15.5199384765625,-1.6615760326385498,-4.845864295959473,-8.061277389526367
1773200124108931000,15.53593115234375,-1.4963760375976562,-4.750096321105957,-8.039729118347168
1773200124124922000,15.551922119140626,-1.292868971824646,-4.716577529907227,-8.073247909545898
1773200124140945000,15.56794482421875,-1.1444283723831177,-4.486733913421631,-8.085219383239746
1773200124156935400,15.583935302734375,-1.1779472827911377,-4.247313976287842,-8.147468566894531
1773200124172926200,15.59992626953125,-1.3670891523361206,-4.015076160430908,-8.2312650680542
1773200124184918300,15.611918212890625,-1.5298948287963867,-3.955221176147461,-8.271966934204102
1773200124196945400,15.6239453125,-1.644816517829895,-3.8977603912353516,-8.29830265045166
1773200124212936200,15.639936279296874,-1.7573440074920654,-3.840299606323242,-8.35336971282959
1773200124224928800,15.6519287109375,-1.766920804977417,-3.866635799407959,-8.406042098999023
1773200124240918300,15.667918212890624,-1.6280571222305298,-3.708618402481079,-8.49941635131836
1773200124256942600,15.683942626953124,-1.4915876388549805,-3.603273630142212,-8.628703117370605
1773200124268935200,15.69593505859375,-1.522712230682373,-3.600879430770874,-8.844181060791016
1773200124284926200,15.71192626953125,-1.6687586307525635,-3.8331170082092285,-9.224859237670898
1773200124296921000,15.723921142578124,-1.7357962131500244,-4.414907932281494,-9.655815124511719
1773200124312942600,15.739942626953125,-1.702277421951294,-5.489904403686523,-10.182539939880371
1773200124328930000,15.755929931640624,-1.5179238319396973,-6.210559368133545,-10.493785858154297
1773200124344924400,15.77192431640625,-1.161187767982483,-6.2416839599609375,-11.0300874710083
1773200124360914200,15.7879140625,-0.9528923034667969,-5.995080947875977,-11.753135681152344
1773200124372940000,15.79993994140625,-1.0103530883789062,-5.705382823944092,-12.27507209777832
1773200124388930000,15.815929931640625,-0.933738648891449,-5.295974254608154,-12.318167686462402
1773200124400922400,15.82792236328125,-0.8523358106613159,-4.922478675842285,-11.975796699523926
1773200124412946000,15.83994580078125,-0.8451532125473022,-4.627991676330566,-11.200075149536133
1773200124428939000,15.85593896484375,-1.0534487962722778,-4.376600742340088,-9.806650161743164
1773200124444931000,15.87193115234375,-1.4077905416488647,-4.122815132141113,-8.815450668334961
1773200124460919300,15.887919189453125,-1.8746598958969116,-4.01268196105957,-8.142680168151855
1773200124476943400,15.903943359375,-2.2409727573394775,-4.07014274597168,-7.558494567871094
1773200124492933400,15.919933349609375,-2.3558945655822754,-4.2975921630859375,-7.048529624938965
1773200124508924000,15.935923828125,-2.2146365642547607,-4.60165548324585,-6.560112476348877
1773200124524946200,15.9519462890625,-1.8555063009262085,-5.035006046295166,-6.244078159332275
1773200124540938800,15.967938720703126,-1.1971008777618408,-5.655104637145996,-6.327875137329102
1773200124556929500,15.983929443359376,-0.6440402865409851,-6.260837554931641,-6.536170482635498
1773200124572920000,15.999920166015626,-0.22026655077934265,-6.773196697235107,-6.7708024978637695
1773200124584944600,16.011944580078126,0.19632454216480255,-6.914454460144043,-6.909666061401367
1773200124596938800,16.023938720703125,0.6847416758537292,-6.799532890319824,-7.050923824310303
1773200124608930000,16.035929931640624,1.1228805780410767,-6.641515731811523,-7.218518257141113
1773200124620924700,16.047924560546875,1.501164436340332,-6.485892295837402,-7.450755596160889
1773200124636947500,16.063947509765626,1.9488801956176758,-6.277596950531006,-7.647080421447754
1773200124652938200,16.079938232421874,2.166752576828003,-5.870582580566406,-7.82185697555542
1773200124668928800,16.0959287109375,1.5466543436050415,-5.384559631347656,-7.709329605102539
1773200124684919600,16.11191943359375,0.31603461503982544,-5.0876784324646,-7.328651428222656
1773200124700941600,16.127941650390625,-0.6272808313369751,-4.800374507904053,-7.168240070343018
1773200124716934000,16.143933837890625,-1.3000515699386597,-4.67827033996582,-6.957550048828125
1773200124728924700,16.155924560546875,-1.721431016921997,-4.73573112487793,-6.830657482147217
1773200124740919800,16.167919921875,-2.030282974243164,-4.812345504760742,-6.746860504150391
1773200124756942300,16.1839423828125,-2.1523873805999756,-4.90571928024292,-6.806715488433838
1773200124772935000,16.199934814453126,-2.123656988143921,-4.891354084014893,-6.97430944442749
1773200124788925000,16.215925048828126,-1.7166426181793213,-5.006275653839111,-7.6997528076171875
1773200124804945400,16.2319453125,-0.9864110946655273,-5.0900726318359375,-8.135497093200684
1773200124816938500,16.2439384765625,-0.4118026793003082,-5.0900726318359375,-8.451532363891602
1773200124828933000,16.25593310546875,-0.06224924325942993,-5.116408824920654,-8.729259490966797
1773200124844923000,16.2719228515625,0.12210428714752197,-4.886565685272217,-9.160215377807617
1773200124856919000,16.2839189453125,0.1149216815829277,-4.661510944366455,-9.552865028381348
1773200124872938800,16.299938720703125,-0.08858546614646912,-4.448426723480225,-10.139444351196289
1773200124888928500,16.315928466796876,-0.4357447028160095,-4.213795185089111,-10.515334129333496
1773200124900923600,16.327923583984376,-0.7805097699165344,-4.185064792633057,-10.560823440551758
1773200124912916200,16.339916259765626,-0.9696516990661621,-4.189853191375732,-10.45547866821289
1773200124928939300,16.355939208984374,-0.933738648891449,-4.01268196105957,-10.125079154968262
1773200124944930000,16.371929931640626,-0.9217676520347595,-4.201824188232422,-9.821015357971191
1773200124960919600,16.38791943359375,-0.7565677165985107,-4.2951979637146,-9.600749015808105
1773200124972944100,16.399944091796876,-0.5722141861915588,-4.2760443687438965,-9.588777542114258
1773200124984939000,16.41193896484375,-0.31364041566848755,-4.2951979637146,-9.653421401977539
1773200125000928300,16.42792822265625,-0.14604631066322327,-4.242525577545166,-9.593565940856934
1773200125016921600,16.443921630859375,0.11252748221158981,-4.273650169372559,-9.567230224609375
1773200125028946200,16.4559462890625,0.35673606395721436,-4.304774761199951,-9.660603523254395
1773200125040936700,16.467936767578124,0.5267243981361389,-4.412513732910156,-9.840168952941895
1773200125056929800,16.4839296875,0.849941611289978,-4.417302131652832,-9.945513725280762
1773200125072921600,16.499921630859376,1.048660397529602,-4.548983097076416,-9.945513725280762
1773200125088940800,16.51594091796875,0.811634361743927,-4.78122091293335,-9.979032516479492
1773200125104933600,16.53193359375,0.395043283700943,-5.2696380615234375,-9.945513725280762
1773200125116928000,16.543927978515626,0.24899697303771973,-5.468356609344482,-9.986215591430664
1773200125128919000,16.5559189453125,0.18914192914962769,-5.458779811859131,-10.079588890075684
1773200125144940800,16.57194091796875,0.09816227108240128,-5.714959621429443,-10.093954086303711
1773200125160932000,16.58793212890625,-0.1628057211637497,-6.449979305267334,-10.0580415725708
1773200125172927200,16.59992724609375,-0.3711012601852417,-6.89530086517334,-9.988609313964844
1773200125184918800,16.611918701171874,-0.4405331015586853,-7.24485445022583,-9.765948295593262
1773200125196946000,16.62394580078125,-0.10055647045373917,-7.132327079772949,-9.47146224975586
1773200125208935700,16.635935791015626,0.33518823981285095,-6.8809356689453125,-9.174580574035645
1773200125224929300,16.65192919921875,0.7757213711738586,-6.36378812789917,-9.184157371520996
1773200125240919000,16.6679189453125,0.8236053586006165,-5.856217384338379,-9.215282440185547
1773200125256941800,16.68394189453125,0.8690952062606812,-5.815515995025635,-8.271966934204102
1773200125268935200,16.69593505859375,0.6943184733390808,-5.913678169250488,-7.264008045196533
1773200125284927000,16.711927001953125,-0.10534487664699554,-6.327875137329102,-6.054935932159424
1773200125296921300,16.72392138671875,-0.933738648891449,-6.710947513580322,-5.87776517868042
1773200125312941000,16.739941162109375,-1.802833914756775,-7.252037048339844,-5.872976779937744
1773200125328933000,16.75593310546875,-2.4133553504943848,-7.465120792388916,-5.839457988739014
1773200125340926500,16.767926513671874,-2.5689783096313477,-7.661445617675781,-6.124367713928223
1773200125356949800,16.78394970703125,-2.5258827209472656,-7.797914981842041,-6.380547523498535
1773200125372939000,16.79993896484375,-2.604891538619995,-7.393294811248779,-6.825869083404541
1773200125388929800,16.8159296875,-2.4468741416931152,-6.878541469573975,-7.354987621307373
1773200125404922000,16.831922119140625,-2.1787235736846924,-6.481103897094727,-7.529764175415039
1773200125420944400,16.8479443359375,-2.6671407222747803,-5.975927352905273,-7.6566572189331055
1773200125436936200,16.863936279296876,-3.509899616241455,-5.571307182312012,-7.9415669441223145
1773200125452926000,16.879926025390624,-4.3622355461120605,-5.360617637634277,-7.960720539093018
1773200125468909800,16.895909912109374,-4.728548526763916,-5.07570743560791,-7.496245384216309
1773200125484903400,16.9119033203125,-4.474762916564941,-4.836287498474121,-6.979097843170166
1773200125500893000,16.927892822265626,-4.110844135284424,-4.680664539337158,-6.718130111694336
1773200125516885000,16.943885009765626,-3.5865142345428467,-4.587290287017822,-6.63433313369751
1773200125528906500,16.955906494140624,-3.1028854846954346,-4.587290287017822,-6.710947513580322
1773200125544898600,16.971898681640624,-2.3965959548950195,-4.608838081359863,-6.971915245056152
1773200125560889900,16.987889892578124,-1.8746598958969116,-4.711789131164551,-7.2352776527404785
1773200125576884000,17.003884033203125,-1.4700398445129395,-4.910507678985596,-7.266402244567871
1773200125592903400,17.0199033203125,-1.0127472877502441,-5.044582843780518,-7.216124057769775
1773200125608895000,17.03589501953125,-0.545877993106842,-4.982333660125732,-7.242460250854492
1773200125620888000,17.04788818359375,-0.17238251864910126,-4.862623691558838,-7.2137298583984375
1773200125636910300,17.063910400390625,0.2944868206977844,-4.934449672698975,-7.1921820640563965
1773200125648901600,17.075901611328124,0.629675030708313,-4.948814868927002,-7.182605266571045
1773200125664894700,17.091894775390625,0.8762778043746948,-4.750096321105957,-7.180211067199707
1773200125680884200,17.10788427734375,0.6536170840263367,-4.496310710906982,-7.359776020050049
1773200125692910600,17.11991064453125,0.038307227194309235,-4.477157115936279,-7.568071365356445
1773200125708902100,17.135902099609375,-0.6727706789970398,-4.314351558685303,-7.95832633972168
1773200125724893000,17.151892822265626,-1.0031704902648926,-4.034229755401611,-8.250418663024902
1773200125740884000,17.167884033203126,-1.161187767982483,-3.9815573692321777,-8.643068313598633
1773200125756905700,17.18390576171875,-1.2473790645599365,-3.9264907836914062,-9.071630477905273
1773200125772897000,17.19989697265625,-1.4053963422775269,-3.9025487899780273,-9.332598686218262
1773200125788888800,17.215888916015626,-1.601720929145813,-3.627215623855591,-9.514557838439941
1773200125804908800,17.23190869140625,-1.7860745191574097,-3.5170822143554688,-9.873687744140625
1773200125820900000,17.247900146484376,-2.0254945755004883,-3.643975019454956,-10.299856185913086
1773200125836893400,17.2638935546875,-2.070984363555908,-3.909731388092041,-10.553641319274902
1773200125852884500,17.279884521484377,-1.944091796875,-4.563348293304443,-10.57040023803711
1773200125868904200,17.295904296875,-1.764526605606079,-5.353435039520264,-10.512939453125
1773200125884896300,17.311896240234375,-1.4413094520568848,-6.210559368133545,-10.381258964538574
1773200125896890400,17.323890380859375,-1.0989385843276978,-7.003039836883545,-10.553641319274902
1773200125912909300,17.339909423828125,-0.6512228846549988,-7.577648162841797,-11.674127578735352
1773200125928902000,17.35590185546875,-0.40701428055763245,-7.062894821166992,-12.45463752746582
1773200125944893700,17.371893798828125,-0.31124621629714966,-5.872976779937744,-11.973402976989746
1773200125956888000,17.38388818359375,-0.014365210197865963,-5.434837818145752,-10.96304988861084
1773200125972909300,17.399909423828124,0.2585737705230713,-5.116408824920654,-8.98543930053711
1773200125988899300,17.4158994140625,0.28969839215278625,-5.16429328918457,-7.4770917892456055
1773200126000891100,17.42789111328125,0.13168109953403473,-5.4228668212890625,-6.557718276977539
1773200126016885000,17.443885009765626,-0.19153612852096558,-5.461174011230469,-5.566518783569336
1773200126032906000,17.459906005859374,-0.8164227604866028,-5.48272180557251,-5.200206279754639
1773200126048896300,17.475896240234373,-1.45806884765625,-5.434837818145752,-5.4444146156311035
1773200126064886500,17.491886474609377,-1.7908629179000854,-5.473145008087158,-5.671864032745361
1773200126076881200,17.503881103515624,-1.7693150043487549,-5.657498836517334,-6.038176536560059
1773200126092903000,17.51990283203125,-1.3862427473068237,-6.086060523986816,-6.481103897094727
1773200126108896500,17.535896484375,-0.5147533416748047,-6.564900875091553,-6.485892295837402
1773200126124886300,17.55188623046875,0.790086567401886,-6.799532890319824,-6.773196697235107
1773200126140905700,17.56790576171875,1.6831238269805908,-6.806715488433838,-7.29034423828125
1773200126156898600,17.583898681640626,2.1571757793426514,-6.787561893463135,-7.869740962982178
1773200126172891400,17.599891357421875,2.434903144836426,-6.564900875091553,-8.293514251708984
1773200126184883200,17.61188330078125,2.43011474609375,-6.253654956817627,-8.449137687683105
1773200126200904700,17.62790478515625,1.8579005002975464,-5.671864032745361,-8.382100105285645
1773200126216896500,17.643896484375,0.9217676520347595,-5.231330871582031,-8.391676902770996
1773200126232886000,17.659885986328124,-0.15083470940589905,-4.908113479614258,-8.530540466308594
1773200126244882200,17.671882080078124,-0.9409212470054626,-4.750096321105957,-8.607154846191406
1773200126260901000,17.687901123046874,-1.7525556087493896,-4.527435302734375,-8.394071578979492
1773200126276894700,17.703894775390626,-2.0398597717285156,-4.496310710906982,-8.1139497756958
1773200126288886500,17.715886474609373,-1.9847931861877441,-4.522646903991699,-7.9176249504089355
1773200126304908300,17.731908203125,-1.9081788063049316,-4.738125324249268,-7.898471355438232
1773200126320899800,17.74789990234375,-1.623268723487854,-4.924872875213623,-8.142680168151855
1773200126336891400,17.763891357421876,-1.1348515748977661,-4.920084476470947,-8.508993148803711
1773200126352884000,17.779884033203125,-0.646434485912323,-4.9799394607543945,-8.769960403442383
1773200126364908000,17.791907958984375,-0.43095630407333374,-4.98472785949707,-9.064447402954102
1773200126380899300,17.8078994140625,-0.2106897532939911,-5.102043628692627,-9.435548782348633
1773200126396889300,17.823889404296875,0.040701430290937424,-5.1331682205200195,-9.418789863586426
1773200126412910000,17.83991015625,0.2801215946674347,-5.106832027435303,-9.299078941345215
1773200126428901600,17.855901611328125,0.47405192255973816,-5.0900726318359375,-9.078812599182129
1773200126440894000,17.86789404296875,0.5554547905921936,-5.066130638122559,-8.853757858276367
1773200126452887600,17.879887451171875,0.4812345504760742,-5.07570743560791,-8.585607528686523
1773200126468910300,17.895910400390626,0.12928688526153564,-5.104437828063965,-8.293514251708984
1773200126484903700,17.911903564453127,-0.13407529890537262,-5.056553840637207,-8.001421928405762
1773200126496896500,17.923896484375,-0.14604631066322327,-5.006275653839111,-7.972691535949707
1773200126512884700,17.939884765625,-0.035913024097681046,-4.8602294921875,-8.17380428314209
1773200126528906000,17.955906005859376,-0.1628057211637497,-4.7620673179626465,-8.489839553833008
1773200126540903200,17.967903076171876,-0.20350714027881622,-4.750096321105957,-8.643068313598633
1773200126556894000,17.98389404296875,-0.2106897532939911,-4.577713489532471,-8.755595207214355
1773200126572882200,17.999882080078127,-0.27054479718208313,-4.577713489532471,-8.844181060791016
1773200126588905200,18.0159052734375,-0.31603461503982544,-4.580107688903809,-8.868123054504395
1773200126604897500,18.0318974609375,-0.47165772318840027,-4.637568473815918,-8.973467826843262
1773200126620889300,18.047889404296875,-0.7350199222564697,-4.659116744995117,-8.995016098022461
1773200126636910800,18.063910888671874,-0.9816226959228516,-4.778826713562012,-9.229647636413574
1773200126648901600,18.075901611328124,-1.0606313943862915,-4.881777286529541,-9.397241592407227
1773200126660897500,18.0878974609375,-1.0438719987869263,-4.912901878356934,-9.502586364746094
1773200126676888000,18.10388818359375,-0.7613561153411865,-5.066130638122559,-9.78989028930664
1773200126692909600,18.11990966796875,-0.8595184087753296,-5.494692802429199,-10.460267066955566
1773200126704902000,18.13190185546875,-1.194706678390503,-5.863399982452393,-10.321403503417969
1773200126720892400,18.147892333984377,-1.2545616626739502,-6.387730121612549,-9.837775230407715
1773200126732888600,18.159888671875,-1.0319008827209473,-6.440402507781982,-9.50498104095459
1773200126748909000,18.175908935546875,-0.45489832758903503,-6.540958881378174,-9.279925346374512
1773200126764901000,18.191901123046875,-0.035913024097681046,-6.651092529296875,-9.253589630126953
1773200126780891100,18.20789111328125,0.0071826050989329815,-6.687005519866943,-9.040505409240723
1773200126796883700,18.2238837890625,-0.019153613597154617,-6.6127848625183105,-8.449137687683105
1773200126812905500,18.239905517578126,-0.7422025203704834,-6.550535678863525,-7.393294811248779
1773200126828896800,18.255896728515626,-1.7094600200653076,-6.75883150100708,-6.14831018447876
1773200126840887800,18.2678876953125,-2.274491548538208,-6.780379295349121,-5.264849662780762
1773200126856880600,18.283880615234374,-2.7964274883270264,-6.66785192489624,-5.066130638122559
1773200126872900400,18.299900390625,-3.227383852005005,-6.631938934326172,-5.2672438621521
1773200126884895500,18.3118955078125,-3.531447410583496,-6.392518520355225,-5.415684223175049
1773200126900886300,18.32788623046875,-3.971980571746826,-6.1267619132995605,-5.9304375648498535
1773200126912881200,18.339881103515626,-4.206612586975098,-6.0836663246154785,-6.45476770401001
1773200126928902400,18.35590234375,-4.261679172515869,-6.071695327758789,-7.491456985473633
1773200126940895500,18.3678955078125,-4.256890773773193,-6.088454723358154,-8.128314971923828
1773200126952887300,18.37988720703125,-4.197035789489746,-6.076483726501465,-8.506598472595215
1773200126968877800,18.3958779296875,-4.127603530883789,-6.174646377563477,-8.394071578979492
1773200126984899800,18.41189990234375,-3.864241600036621,-6.256049156188965,-8.149862289428711
1773200126996895000,18.42389501953125,-3.509899616241455,-6.212953567504883,-8.195352554321289
1773200127008887800,18.4358876953125,-3.2297780513763428,-6.179434776306152,-8.17141056060791
1773200127020881400,18.44788134765625,-3.1028854846954346,-6.107608318328857,-7.936778545379639
1773200127036904400,18.463904541015626,-2.999934673309326,-6.033388137817383,-7.661445617675781
1773200127048895000,18.47589501953125,-3.0550012588500977,-5.872976779937744,-7.529764175415039
1773200127060891400,18.487891357421876,-3.0837318897247314,-5.683835029602051,-7.436390399932861
1773200127076881200,18.503881103515624,-3.1244332790374756,-5.549759387969971,-7.405265808105469
1773200127088903700,18.515903564453126,-3.0310592651367188,-5.434837818145752,-7.287950038909912
1773200127100897300,18.527897216796877,-2.8203697204589844,-5.413290023803711,-7.273584842681885
1773200127116890600,18.543890625,-2.5474305152893066,-5.396530628204346,-7.268796443939209
1773200127132880600,18.559880615234373,-2.123656988143921,-5.489904403686523,-7.228095054626465
1773200127148902400,18.57590234375,-1.6855180263519287,-5.408501625061035,-7.163451671600342
1773200127160895200,18.587895263671875,-1.5059528350830078,-5.374982833862305,-7.127538681030273
1773200127176887000,18.603886962890623,-1.3766659498214722,-5.353435039520264,-6.9024834632873535
1773200127188880000,18.6158798828125,-1.3239935636520386,-5.305551052093506,-6.746860504150391
1773200127200903400,18.6279033203125,-1.194706678390503,-5.2911858558654785,-6.677428722381592
1773200127212897800,18.639897705078123,-1.1324573755264282,-5.288791656494141,-6.519411087036133
1773200127224892700,18.651892578125,-1.1348515748977661,-5.250484466552734,-6.485892295837402
1773200127236885200,18.66388525390625,-1.4317326545715332,-5.25527286529541,-6.677428722381592
1773200127248909000,18.675908935546875,-1.9345149993896484,-5.173870086669922,-6.833051681518555
1773200127264899600,18.691899658203123,-2.33913516998291,-4.910507678985596,-7.070077419281006
1773200127280889000,18.70788916015625,-2.341529369354248,-4.6950297355651855,-7.129932880401611
1773200127292883000,18.719883056640626,-2.298433542251587,-4.620809078216553,-7.163451671600342
1773200127308907000,18.735906982421874,-2.123656988143921,-4.659116744995117,-7.292738437652588
1773200127324896800,18.751896728515625,-2.049436569213867,-4.5609540939331055,-7.69735860824585
1773200127340887000,18.767886962890625,-2.3104045391082764,-4.323928356170654,-7.977479934692383
1773200127356881200,18.783881103515625,-2.3271639347076416,-4.141968727111816,-8.415618896484375
1773200127372902000,18.79990185546875,-2.389413356781006,-4.1180267333984375,-8.583212852478027
1773200127384895000,18.81189501953125,-2.3487119674682617,-4.175487995147705,-8.583212852478027
1773200127396889600,18.8238896484375,-2.252943754196167,-4.197035789489746,-8.686163902282715
1773200127408880000,18.835880126953125,-2.1045033931732178,-4.146757125854492,-8.81784439086914
1773200127424903000,18.85190283203125,-1.9249382019042969,-4.240131378173828,-9.124302864074707
1773200127440893200,18.86789306640625,-1.6831238269805908,-4.443638324737549,-9.29189682006836
1773200127452887300,18.87988720703125,-1.4413094520568848,-4.587290287017822,-9.320627212524414
1773200127468879000,18.895879150390623,-1.137245774269104,-4.994304656982422,-9.44752025604248
1773200127484902100,18.911902099609375,-0.6919242739677429,-5.355829238891602,-9.569623947143555
1773200127500891400,18.927891357421874,-0.0694318488240242,-5.185841083526611,-9.684545516967773
1773200127512887000,18.939886962890625,0.4620809257030487,-4.8722004890441895,-9.904812812805176
1773200127528907300,18.9559072265625,0.6991068720817566,-4.426878929138184,-10.644620895385742
1773200127540899300,18.9678994140625,0.5219359993934631,-4.2975921630859375,-10.740388870239258
1773200127556892000,18.983891845703123,0.023942016065120697,-4.376600742340088,-10.098742485046387
1773200127572884700,18.999884765625,-0.363918662071228,-4.666299343109131,-8.406042098999023
1773200127584876800,19.011876708984374,-0.3280056416988373,-4.812345504760742,-7.5848307609558105
1773200127600898800,19.02789892578125,-0.5003881454467773,-5.063736438751221,-7.273584842681885
1773200127612892400,19.039892333984376,-0.8523358106613159,-5.355829238891602,-7.419631004333496
1773200127624883700,19.0518837890625,-1.3455413579940796,-5.748478412628174,-7.778761386871338
1773200127636909300,19.063909423828125,-1.8722656965255737,-6.1315507888793945,-8.123526573181152
1773200127648902400,19.07590234375,-2.4157495498657227,-6.279991149902344,-8.671798706054688
1773200127664892400,19.091892333984376,-2.784456491470337,-6.303933143615723,-9.265560150146484
1773200127680883700,19.1078837890625,-1.9608511924743652,-6.524199485778809,-9.84495735168457
1773200127696907300,19.1239072265625,-0.6153098344802856,-6.689399719238281,-9.72285270690918
1773200127712897800,19.139897705078123,0.17717093229293823,-6.773196697235107,-9.560047149658203
1773200127728887600,19.155887451171875,0.002394201699644327,-6.536170482635498,-9.129091262817383
1773200127744880000,19.171880126953123,-0.8236053586006165,-6.169857978820801,-8.29590892791748
1773200127756904000,19.183904052734373,-1.4532804489135742,-5.987898349761963,-7.778761386871338
1773200127768897800,19.195897705078124,-1.9536685943603516,-5.813121795654297,-7.110779285430908
1773200127784887800,19.2118876953125,-2.248155355453491,-5.7341132164001465,-6.63433313369751
1773200127800880600,19.227880615234376,-2.140416383743286,-5.631162166595459,-6.260837554931641
1773200127816903400,19.2439033203125,-1.7381904125213623,-5.406107425689697,-6.370970726013184
1773200127832894500,19.25989453125,-1.4532804489135742,-5.173870086669922,-7.036558628082275
1773200127844885800,19.2718857421875,-1.5682021379470825,-5.2049946784973145,-7.489062786102295
1773200127860876800,19.287876708984374,-1.845929503440857,-5.272032260894775,-7.924807548522949
1773200127876899800,19.30389990234375,-1.5538369417190552,-5.398924827575684,-8.092401504516602
1773200127892889300,19.319889404296877,-0.8020575642585754,-5.566518783569336,-8.109161376953125
1773200127904883500,19.331883544921876,-0.19871874153614044,-5.750872611999512,-8.252813339233398
1773200127920905200,19.3479052734375,0.14365209639072418,-6.028599739074707,-8.621520042419434
1773200127932898800,19.35989892578125,0.19632454216480255,-6.13633918762207,-8.674192428588867
1773200127948890000,19.37589013671875,0.181959331035614,-6.196194171905518,-8.504204750061035
1773200127964881700,19.391881591796874,0.24420857429504395,-6.174646377563477,-8.214506149291992
1773200127980901000,19.407901123046877,0.38067805767059326,-6.0597243309021,-7.841010570526123
1773200127996895200,19.423895263671874,0.3974374830722809,-5.856217384338379,-7.704541206359863
1773200128012884700,19.439884765625,-0.035913024097681046,-5.453991413116455,-7.781155586242676
1773200128028906200,19.45590625,-0.43335050344467163,-5.228936672210693,-7.833827972412109
1773200128044898800,19.47189892578125,-0.42377370595932007,-4.965574264526367,-7.934384346008301
1773200128060889000,19.48788916015625,-0.14844051003456116,-4.702212333679199,-8.236053466796875
1773200128076881000,19.503880859375,0.07422025501728058,-4.467580318450928,-8.650250434875488
1773200128088904400,19.515904541015626,0.07661445438861847,-4.311957359313965,-8.901641845703125
1773200128100897300,19.527897216796877,0.004788403399288654,-4.225766181945801,-9.11233139038086
1773200128116890400,19.543890380859374,0.05985504388809204,-4.350264549255371,-9.150638580322266
1773200128128883000,19.555883056640624,0.19153612852096558,-4.58968448638916,-9.155426979064941
1773200128144904000,19.571904052734375,0.4405331015586853,-4.932055473327637,-9.244012832641602
1773200128160894000,19.58789404296875,0.6009446382522583,-5.109226226806641,-9.457097053527832
1773200128176888000,19.60388818359375,0.5147533416748047,-5.188235282897949,-9.583989143371582
1773200128192908500,19.619908447265626,0.5626373887062073,-4.9152960777282715,-9.552865028381348
1773200128204902100,19.631902099609373,0.6823474764823914,-4.5394062995910645,-9.464279174804688
1773200128216895700,19.643895751953124,0.7015010714530945,-4.086902141571045,-9.44991397857666
1773200128232887000,19.659886962890624,0.5027823448181152,-3.600879430770874,-9.488221168518066
1773200128248907800,19.67590771484375,-0.1412578970193863,-3.4835634231567383,-9.093177795410156
1773200128260902000,19.68790185546875,-0.5722141861915588,-3.6176388263702393,-8.69334602355957
1773200128276893400,19.7038935546875,-0.9026140570640564,-3.8091750144958496,-8.312667846679688
1773200128292883700,19.7198837890625,-1.161187767982483,-4.077325344085693,-8.216899871826172
1773200128308907000,19.735906982421874,-1.237802267074585,-4.280832767486572,-8.195352554321289
1773200128320898600,19.747898681640624,-1.2066776752471924,-4.345476150512695,-8.29830265045166
1773200128336891600,19.7638916015625,-1.0582371950149536,-4.422090530395508,-8.676587104797363
1773200128352881000,19.779880859375,-0.9217676520347595,-4.335899353027344,-9.136273384094238
1773200128364905500,19.791905517578126,-1.070208191871643,-4.2090067863464355,-9.27034854888916
