time,seconds_elapsed,z,y,x
1773230417058191000,0.676191162109375,-0.15850353240966797,-0.03592276573181152,-0.004434525966644287
1773230417074184400,0.692184326171875,-0.20319652557373047,0.015692710876464844,-0.05273868143558502
1773230417090176500,0.708176513671875,0.09997940063476562,-0.003235340118408203,-0.12950824201107025
1773230417105747000,0.723746826171875,0.3931722640991211,-0.07801365852355957,-0.19341544806957245
1773230417122190000,0.740190185546875,0.4771604537963867,-0.17852747440338135,-0.16258642077445984
1773230417138180900,0.756180908203125,0.35395145416259766,-0.16031312942504883,0.07998188585042953
1773230417154172200,0.772172119140625,0.1773834228515625,-0.0105818510055542,0.24767673015594482
1773230417170193200,0.788193115234375,-0.004050254821777344,0.061516642570495605,0.14425280690193176
1773230417186183700,0.80418359375,-0.13808345794677734,0.21833062171936035,-0.009697213768959045
1773230417202174700,0.8201748046875,-0.1225748062133789,0.2935459613800049,-0.19899380207061768
1773230417218198500,0.836198486328125,0.06495952606201172,0.2836880683898926,-0.38248252868652344
1773230417242183400,0.860183349609375,0.4673013687133789,0.14380621910095215,-0.2640795409679413
1773230417282194200,0.900194091796875,-0.2118682861328125,-0.08270978927612305,0.07645831257104874
1773230417298183200,0.91618310546875,-0.29421043395996094,-0.15065479278564453,0.23100163042545319
1773230417314175500,0.932175537109375,-0.19208049774169922,-0.1618518829345703,0.2686637341976166
1773230417330197000,0.948197021484375,-0.04337024688720703,-0.11225652694702148,0.2661985754966736
1773230417346187800,0.964187744140625,0.05857086181640625,0.009255409240722656,0.18416434526443481
1773230417362178800,0.9801787109375,0.0947408676147461,0.1230471134185791,0.04784366488456726
1773230417378170000,0.996170166015625,0.17243480682373047,0.1995551586151123,0.02164769172668457
1773230417393810000,1.011809814453125,0.2076406478881836,0.10349130630493164,0.006307430565357208
1773230417410184200,1.02818408203125,0.15498733520507812,-0.04841947555541992,0.09952080994844437
1773230417426175200,1.04417529296875,0.24662303924560547,-0.10758256912231445,0.18859335780143738
1773230417442197800,1.06019775390625,0.26014232635498047,-0.09191584587097168,0.19077040255069733
1773230417458188300,1.076188232421875,0.06381702423095703,-0.051439523696899414,0.13850513100624084
1773230417474179600,1.0921796875,-0.14394855499267578,0.020076990127563477,0.09436233341693878
1773230417490170600,1.108170654296875,-0.20842456817626953,0.05972480773925781,0.029963798820972443
1773230417506192100,1.124192138671875,-0.1688241958618164,0.05273938179016113,0.02089424431324005
1773230417522184000,1.140183837890625,0.06338977813720703,-0.012598037719726562,0.10313349217176437
1773230417538174700,1.1561748046875,0.23768997192382812,-0.037308692932128906,0.17233669757843018
1773230417554196200,1.1721962890625,0.4867391586303711,0.004981040954589844,0.1611649990081787
1773230417570187500,1.1881875,0.4914121627807617,0.05344700813293457,0.13151508569717407
1773230417586177000,1.204177001953125,0.4363117218017578,0.09715104103088379,-0.06522040069103241
1773230417602201300,1.220201416015625,0.35007381439208984,0.0865468978881836,-0.12098135054111481
1773230417618190600,1.236190673828125,0.3105649948120117,0.03705716133117676,-0.023885026574134827
1773230417634182400,1.252182373046875,0.5666189193725586,-0.035889625549316406,0.11337347328662872
1773230417650174000,1.268174072265625,0.9249067306518555,-0.02459263801574707,0.22831971943378448
1773230417666195200,1.2841953125,0.7613372802734375,0.03355908393859863,0.17287574708461761
1773230417682186500,1.3001865234375,0.32951831817626953,0.17669916152954102,0.059997446835041046
1773230417698176500,1.316176513671875,-0.39393043518066406,0.05245804786682129,-0.13536694645881653
1773230417714169600,1.332169677734375,-0.8416309356689453,-0.5633876323699951,-0.6905640959739685
1773230417730190800,1.34819091796875,-0.7254667282104492,-0.024983644485473633,0.425191730260849
1773230417746183000,1.364182861328125,-0.6684274673461914,-0.038083553314208984,0.5831201076507568
1773230417762174200,1.38017431640625,-0.17348766326904297,0.005406379699707031,0.02386157214641571
1773230417778193700,1.396193603515625,-0.2655906677246094,-0.018688201904296875,-0.3026120066642761
1773230417794187500,1.4121875,-0.39923954010009766,0.23835349082946777,-0.12948960065841675
1773230417810178300,1.42817822265625,-0.6600818634033203,-0.03900408744812012,0.3838803768157959
1773230417826199000,1.444198974609375,-0.30028629302978516,0.21995806694030762,0.18840685486793518
1773230417842191600,1.460191650390625,0.19012928009033203,0.12761330604553223,-0.23844581842422485
1773230417858182000,1.476181884765625,0.22438335418701172,0.05900216102600098,-0.05229276418685913
1773230417874174200,1.49217431640625,0.09075164794921875,-0.030879974365234375,0.1517220437526703
1773230417890195200,1.5081953125,0.18753433227539062,0.00417017936706543,0.19559597969055176
1773230417906186200,1.524186279296875,0.23819351196289062,0.15384316444396973,-0.09475940465927124
1773230417922176800,1.5401767578125,0.12717342376708984,0.1599733829498291,-0.15097731351852417
1773230417938199300,1.55619921875,0.21581459045410156,0.13006854057312012,-0.20820003747940063
1773230417954189600,1.572189453125,0.2020425796508789,0.03380990028381348,-0.04401502013206482
1773230417970181600,1.588181640625,0.32121849060058594,-0.01689887046813965,-0.13852477073669434
1773230417986173000,1.6041728515625,0.07169342041015625,-0.06615352630615234,-0.06741154193878174
1773230418002195500,1.620195556640625,-0.28753185272216797,-0.21720266342163086,-0.10172489285469055
1773230418018186000,1.63618603515625,-0.45644187927246094,-0.36527204513549805,-0.0397355854511261
1773230418034178300,1.65217822265625,-0.2988405227661133,-0.4580075740814209,-0.18141397833824158
1773230418050169600,1.668169677734375,-0.1922168731689453,-0.5050301551818848,-0.16818925738334656
1773230418066188500,1.6841884765625,-0.12194156646728516,-0.4280714988708496,-0.14017754793167114
1773230418082180400,1.700180419921875,0.15873336791992188,-0.4167912006378174,-0.25172415375709534
1773230418098171600,1.716171630859375,0.17078590393066406,-0.5283163785934448,-0.17655104398727417
1773230418114195000,1.73219482421875,0.4502220153808594,-0.5740225315093994,-0.10349488258361816
1773230418130185700,1.748185791015625,0.17520904541015625,-0.7161768674850464,0.005452275276184082
1773230418146177300,1.76417724609375,0.17641448974609375,-0.7373125553131104,0.15050102770328522
1773230418162199600,1.780199462890625,0.28751087188720703,-0.6821582317352295,0.30660292506217957
1773230418178188500,1.7961884765625,0.5099582672119141,-0.6931018829345703,0.2994702160358429
1773230418194181000,1.81218115234375,0.5071620941162109,-0.6502676010131836,0.25275570154190063
1773230418210173000,1.8281728515625,0.21917438507080078,-0.5566010475158691,-0.09052439033985138
1773230418226194200,1.844194091796875,0.19569110870361328,-0.5475702285766602,0.0017642676830291748
1773230418242184200,1.86018408203125,0.48276805877685547,-0.4368394613265991,0.04071210324764252
1773230418258175700,1.87617578125,0.16539669036865234,-0.41395747661590576,0.029790416359901428
1773230418274199000,1.892198974609375,-0.22627639770507812,-0.24953055381774902,-0.26590245962142944
1773230418290189300,1.908189208984375,-0.3238677978515625,-0.16873443126678467,-0.4030083417892456
1773230418306179600,1.9241796875,-0.1632976531982422,-0.18645572662353516,-0.21409867703914642
1773230418322172200,1.940172119140625,-0.08179664611816406,-0.26228106021881104,0.13029958307743073
1773230418338193400,1.956193359375,0.0024518966674804688,-0.3379042148590088,0.33711087703704834
1773230418354183700,1.97218359375,-0.07987785339355469,-0.2630060911178589,0.3863285183906555
1773230418370176500,1.988176513671875,-0.1368875503540039,-0.16872119903564453,0.34612032771110535
1773230418386197500,2.004197509765625,0.05165576934814453,0.04366660118103027,0.3386968970298767
1773230418402190000,2.020190185546875,0.1104593276977539,0.24190962314605713,0.08664272725582123
1773230418418181400,2.036181396484375,-0.1683502197265625,0.4765932559967041,-0.2228105217218399
1773230418434172000,2.052171875,-0.5583333969116211,0.5803790092468262,-0.11516651511192322
1773230418450194400,2.0681943359375,-0.6294412612915039,0.5462112426757812,0.08303655683994293
1773230418466185200,2.084185302734375,-0.24323272705078125,0.5219022035598755,0.2259570211172104
1773230418482176300,2.10017626953125,-0.3024129867553711,0.5976917743682861,0.3055773079395294
1773230418498197800,2.11619775390625,-0.36179065704345703,0.6765177249908447,0.19434022903442383
1773230418514186200,2.132186279296875,-0.15275001525878906,0.6420056819915771,0.16649813950061798
1773230418530179800,2.148179931640625,-0.052783966064453125,0.591259241104126,0.1003621518611908
1773230418546169000,2.164169189453125,-0.16969776153564453,0.5463554859161377,-0.04122588783502579
1773230418562193700,2.180193603515625,-0.052100181579589844,0.5123181343078613,0.05605236440896988
1773230418578183700,2.19618359375,-0.026103973388671875,0.43131160736083984,-0.024061620235443115
1773230418594174500,2.212174560546875,0.08481979370117188,0.3657717704772949,-0.11081475764513016
1773230418610196500,2.228196533203125,0.2590751647949219,0.45952486991882324,-0.14735442399978638
1773230418626187800,2.244187744140625,0.38449764251708984,0.3564937114715576,-0.19367128610610962
1773230418642180000,2.26018017578125,0.4419851303100586,0.3435335159301758,-0.2509147524833679
1773230418658199300,2.27619921875,0.3383026123046875,0.2763211727142334,-0.15807604789733887
1773230418674193700,2.292193603515625,0.5138444900512695,0.15799212455749512,-0.1744718998670578
1773230418690184400,2.308184326171875,0.6173744201660156,0.07889080047607422,-0.0033989213407039642
1773230418706176000,2.324176025390625,0.43228721618652344,-0.04532742500305176,-0.12799017131328583
1773230418722197000,2.340197021484375,0.02994537353515625,-0.11707830429077148,-0.22038882970809937
1773230418738189000,2.35618896484375,-0.038550376892089844,-0.15937185287475586,-0.055162686854600906
1773230418754178300,2.37217822265625,0.12314891815185547,-0.27695155143737793,-0.08150957524776459
1773230418770168800,2.3881689453125,0.22875308990478516,-0.37574732303619385,-0.044859714806079865
1773230418786191600,2.404191650390625,0.15696430206298828,-0.45666635036468506,-0.10071560740470886
1773230418802183000,2.420182861328125,-0.006989479064941406,-0.5108850002288818,-0.11902748048305511
1773230418818174200,2.43617431640625,0.025824546813964844,-0.47042012214660645,0.012561626732349396
1773230418834197200,2.452197265625,0.02854633331298828,-0.5817481279373169,0.012083422392606735
1773230418850186800,2.468186767578125,0.032988548278808594,-0.6513876914978027,0.08141830563545227
1773230418866178300,2.48417822265625,-0.06808185577392578,-0.5905942916870117,0.1675865203142166
1773230418882170600,2.500170654296875,-0.2547788619995117,-0.5270959138870239,-0.038714200258255005
1773230418898191000,2.516191162109375,-0.3880958557128906,-0.5095175504684448,0.03035988286137581
1773230418914184000,2.532183837890625,-0.40123462677001953,-0.5272140502929688,0.0124298594892025
1773230418930175000,2.548175048828125,-0.36367225646972656,-0.47223925590515137,-0.0319322869181633
1773230418946196000,2.564196044921875,-0.25125789642333984,-0.3480139970779419,-0.015633586794137955
1773230418962187300,2.580187255859375,-0.23174571990966797,-0.3334927558898926,-0.15228812396526337
1773230418978179300,2.596179443359375,-0.2146463394165039,-0.25649213790893555,-0.3134399354457855
1773230418994169900,2.612169921875,0.11802387237548828,-0.15062284469604492,-0.021012429147958755
1773230419010190800,2.62819091796875,0.53009033203125,-0.06538522243499756,-0.08639653772115707
1773230419026183000,2.644182861328125,0.6762962341308594,0.006310701370239258,-0.38079333305358887
1773230419042174000,2.660174072265625,0.3019857406616211,0.008639812469482422,0.046091049909591675
1773230419058195700,2.67619580078125,-0.3341207504272461,0.28097426891326904,0.09510160237550735
1773230419074187500,2.6921875,-0.39794921875,0.36827170848846436,0.00035056471824645996
1773230419090178300,2.70817822265625,-0.11718368530273438,0.24767017364501953,0.08042272180318832
1773230419106168800,2.7241689453125,-0.040920257568359375,0.16548550128936768,0.14400187134742737
1773230419122191000,2.740191162109375,0.009392738342285156,0.22027456760406494,0.16847246885299683
1773230419138182700,2.7561826171875,0.13765335083007812,0.41194987297058105,0.17196312546730042
1773230419154172700,2.772172607421875,0.2969226837158203,0.46986985206604004,0.14640948176383972
1773230419170194000,2.78819384765625,0.4392271041870117,0.4788006544113159,0.19106745719909668
1773230419186187300,2.804187255859375,0.1161041259765625,0.3253767490386963,0.24576881527900696
1773230419202177000,2.820177001953125,-0.15871620178222656,0.270627498626709,0.176945298910141
1773230419218199800,2.83619970703125,-0.17026805877685547,0.4937394857406616,0.13016276061534882
1773230419234190800,2.85219091796875,0.012125968933105469,0.5924201011657715,-0.031224645674228668
1773230419250182100,2.86818212890625,-0.024903297424316406,0.42433953285217285,-0.03122461587190628
1773230419266172200,2.884172119140625,-0.23541927337646484,0.27469706535339355,0.04060593247413635
1773230419282195500,2.900195556640625,-0.4292020797729492,0.29807376861572266,-0.0693470910191536
1773230419298184700,2.916184814453125,-0.42853546142578125,0.272899866104126,-0.06614552438259125
1773230419314176000,2.932176025390625,-0.20061206817626953,0.12548303604125977,-0.0858849361538887
1773230419330199000,2.948198974609375,0.00682830810546875,0.15413236618041992,-0.10402718186378479
1773230419346191000,2.964191162109375,0.099334716796875,0.22363734245300293,-0.15026289224624634
1773230419362182000,2.980181884765625,0.16035938262939453,0.22062301635742188,-0.0633704662322998
1773230419378174000,2.996174072265625,0.24225997924804688,0.07470703125,0.09943214058876038
1773230419394195700,3.01219580078125,0.23297882080078125,-0.022362470626831055,0.10047847032546997
1773230419410186000,3.02818603515625,0.2900066375732422,-0.013264894485473633,0.047018393874168396
1773230419426177500,3.044177490234375,0.3009366989135742,-0.11400628089904785,-0.07351440191268921
1773230419442197800,3.06019775390625,0.08246707916259766,-0.3077353239059448,0.02211165986955166
1773230419458190300,3.0761904296875,-0.07858657836914062,-0.3815004825592041,0.027313174679875374
1773230419474182100,3.09218212890625,-0.15966796875,-0.39615750312805176,-0.1623101532459259
1773230419490172000,3.108171875,-0.1611948013305664,-0.35216212272644043,-0.23594532907009125
1773230419506194700,3.124194580078125,0.053211212158203125,-0.43792593479156494,-0.19152112305164337
1773230419522186000,3.14018603515625,0.2712574005126953,-0.50593101978302,-0.04620419070124626
1773230419538176500,3.156176513671875,0.2908649444580078,-0.5052826404571533,-0.11474446207284927
1773230419554198800,3.17219873046875,0.040218353271484375,-0.47438812255859375,-0.13659603893756866
1773230419570190000,3.188190185546875,-0.15324020385742188,-0.4895244836807251,-0.10509875416755676
1773230419586181400,3.204181396484375,-0.23183345794677734,-0.4583120346069336,-0.08154705166816711
1773230419602171400,3.22017138671875,-0.24843597412109375,-0.43949389457702637,-0.06619761884212494
1773230419618192600,3.236192626953125,-0.23365402221679688,-0.4116734266281128,-0.23094215989112854
1773230419634185700,3.252185791015625,-0.08236408233642578,-0.33538830280303955,-0.19296517968177795
1773230419650175700,3.26817578125,0.1578817367553711,-0.2388780117034912,-0.24471454322338104
1773230419666196500,3.284196533203125,0.5184040069580078,-0.23369407653808594,-0.25981971621513367
1773230419682190000,3.300190185546875,0.14443492889404297,-0.10769057273864746,-0.1590339094400406
1773230419698180400,3.316180419921875,-0.07970905303955078,-0.23357915878295898,-0.19201135635375977
1773230419714171600,3.332171630859375,-0.07618141174316406,-0.08290278911590576,-0.049363311380147934
1773230419730193400,3.348193359375,0.06167030334472656,0.1406773328781128,-0.04354030638933182
1773230419746184700,3.364184814453125,0.013332366943359375,0.18881845474243164,0.03785944730043411
1773230419762176000,3.380176025390625,-0.051273345947265625,0.16235017776489258,0.09421031922101974
1773230419778196700,3.39619677734375,0.0183868408203125,0.22333717346191406,0.2673349976539612
1773230419794187800,3.412187744140625,0.18612384796142578,0.30878937244415283,0.3285217881202698
1773230419810180400,3.428180419921875,0.15084552764892578,0.3030034303665161,0.26209068298339844
1773230419826171600,3.444171630859375,0.09961223602294922,0.3310415744781494,0.3474046289920807
1773230419842191600,3.460191650390625,0.11374282836914062,0.41013991832733154,0.31234559416770935
1773230419858184000,3.476183837890625,0.13096904754638672,0.39940154552459717,0.2572750449180603
1773230419874176000,3.492176025390625,-0.0018739700317382812,0.28907954692840576,0.3275941014289856
1773230419890197200,3.508197265625,-0.0000171661376953125,0.393404483795166,0.24091538786888123
1773230419906189300,3.524189208984375,-0.08634567260742188,0.5196806192398071,0.11027161777019501
1773230419922180600,3.5401806640625,-0.1945047378540039,0.2815847396850586,-0.026907220482826233
1773230419938201300,3.556201416015625,-0.2603797912597656,0.21813809871673584,0.008450433611869812
1773230419954193000,3.57219287109375,-0.08033275604248047,0.24896419048309326,-0.08582765609025955
1773230419970183400,3.588183349609375,-0.13517379760742188,0.14920926094055176,-0.1676146537065506
1773230419986173000,3.6041728515625,-0.1474609375,0.10026371479034424,-0.2193790078163147
1773230420002197800,3.62019775390625,0.059416770935058594,0.11689019203186035,-0.1816381812095642
1773230420018187800,3.636187744140625,0.29157257080078125,0.1436833143234253,-0.10804203897714615
1773230420034178300,3.65217822265625,0.34368228912353516,-0.016243815422058105,0.12372688949108124
1773230420050201600,3.66820166015625,0.36696720123291016,-0.1684662103652954,0.23523925244808197
1773230420066191000,3.684191162109375,0.24704265594482422,-0.08823096752166748,0.23305858671665192
1773230420082182000,3.700181884765625,-0.08744525909423828,-0.12261128425598145,0.06789009273052216
1773230420098174200,3.71617431640625,-0.2568244934082031,-0.21143817901611328,0.04912577569484711
1773230420114197000,3.732197021484375,-0.13518524169921875,-0.2207554578781128,0.1383204609155655
1773230420130187800,3.748187744140625,0.03105926513671875,-0.23065900802612305,0.07861827313899994
1773230420146179000,3.764178955078125,0.01772308349609375,-0.19987595081329346,-0.012900546193122864
1773230420162200600,3.78020068359375,0.05435752868652344,-0.24839496612548828,-0.15199951827526093
1773230420178191400,3.79619140625,0.3601675033569336,-0.2315833568572998,0.08289608359336853
1773230420194183700,3.81218359375,0.591465950012207,-0.32105231285095215,0.055819496512413025
1773230420210173200,3.828173095703125,0.4288311004638672,-0.44370532035827637,0.03983846306800842
1773230420226195200,3.8441953125,0.05844879150390625,-0.37060821056365967,-0.005724042654037476
1773230420242185700,3.860185791015625,-0.17370033264160156,-0.27171409130096436,0.0588175505399704
1773230420258177300,3.87617724609375,-0.06430816650390625,-0.3502006530761719,0.03229959309101105
1773230420274199000,3.892198974609375,0.0136871337890625,-0.4753224849700928,0.024622246623039246
1773230420290191000,3.908191162109375,0.08200931549072266,-0.32659029960632324,0.05574612319469452
1773230420306182000,3.924181884765625,-0.08333587646484375,-0.09891927242279053,-0.05008953809738159
1773230420322174700,3.9401748046875,-0.17098140716552734,-0.2295452356338501,-0.029785379767417908
1773230420338195700,3.95619580078125,-0.22237014770507812,-0.37202537059783936,0.035025566816329956
1773230420354186800,3.972186767578125,-0.0967569351196289,-0.3651968240737915,0.019614800810813904
1773230420370177500,3.988177490234375,0.1797780990600586,-0.1413513422012329,-0.08733845502138138
1773230420386200600,4.00420068359375,0.041678428649902344,0.07315468788146973,-0.14998769760131836
1773230420402188500,4.0201884765625,-0.44855403900146484,-0.004887819290161133,-0.137516587972641
1773230420418182700,4.0361826171875,-0.4843406677246094,-0.06064796447753906,-0.039880648255348206
1773230420434173200,4.052173095703125,-0.03575325012207031,0.00816333293914795,-0.07271375507116318
1773230420450194400,4.0681943359375,0.35994625091552734,0.21951138973236084,-0.1825072467327118
1773230420466187500,4.0841875,0.29478931427001953,0.2853708267211914,-0.18939372897148132
1773230420482178000,4.100177978515625,-0.07843685150146484,0.26821041107177734,-0.05328194797039032
1773230420498200600,4.11620068359375,-0.18404293060302734,0.19664287567138672,-0.055106788873672485
1773230420514190300,4.1321904296875,-0.0797567367553711,0.18215322494506836,0.1141478419303894
1773230420530183000,4.148182861328125,0.10308074951171875,0.33776164054870605,0.10769224166870117
1773230420546171400,4.16417138671875,0.15982913970947266,0.436465859413147,-0.054752714931964874
1773230420562195700,4.18019580078125,0.009454727172851562,0.3639061450958252,0.06247333437204361
1773230420578186200,4.196186279296875,-0.16480636596679688,0.3272686004638672,0.14802765846252441
1773230420594178000,4.212177978515625,-0.004725456237792969,0.2903677225112915,0.07330777496099472
1773230420610199000,4.228198974609375,0.14525794982910156,0.20347940921783447,0.11800583451986313
1773230420626189800,4.24418994140625,0.1014547348022461,0.3074498176574707,0.051958657801151276
1773230420642180600,4.2601806640625,-0.025632858276367188,0.3394256830215454,0.0360574796795845
1773230420658202600,4.27620263671875,0.022043228149414062,0.1464097499847412,0.03879215568304062
1773230420674193700,4.292193603515625,-0.07646560668945312,0.18169236183166504,0.08738682419061661
1773230420690185700,4.308185791015625,-0.14414691925048828,0.1538456678390503,0.024538516998291016
1773230420706175200,4.32417529296875,-0.14702320098876953,-0.016119003295898438,0.10032781213521957
1773230420722198500,4.340198486328125,-0.17680644989013672,-0.029886960983276367,0.07874105870723724
1773230420738188800,4.356188720703125,-0.06162834167480469,0.021591663360595703,0.009829647839069366
1773230420754181000,4.37218115234375,0.08880805969238281,-0.04105544090270996,-0.05268007516860962
1773230420770203000,4.388202880859375,0.24346446990966797,-0.09109485149383545,0.0030744075775146484
1773230420786192400,4.4041923828125,0.2805051803588867,-0.07004916667938232,0.14733688533306122
1773230420802186200,4.420186279296875,0.2698335647583008,-0.18886029720306396,0.1129027009010315
1773230420818175500,4.436175537109375,0.1871814727783203,-0.22547709941864014,0.08570531010627747
1773230420834197500,4.452197509765625,0.0921335220336914,-0.24058234691619873,0.13949355483055115
1773230420850189000,4.46818896484375,0.039961814880371094,-0.2497408390045166,-0.005129031836986542
1773230420866182000,4.484181884765625,-0.08267784118652344,-0.2540614604949951,-0.021460652351379395
1773230420882171600,4.500171630859375,-0.1266183853149414,-0.2545323371887207,-0.018943920731544495
1773230420898194200,4.516194091796875,-0.12994384765625,-0.261873722076416,-0.13873130083084106
1773230420914184200,4.53218408203125,-0.21935749053955078,-0.29844629764556885,-0.19410072267055511
1773230420930176000,4.548176025390625,-0.26686668395996094,-0.3002352714538574,-0.21636494994163513
1773230420946196200,4.5641962890625,-0.18651199340820312,-0.3355138301849365,-0.2794012427330017
1773230420962189300,4.580189208984375,-0.07324790954589844,-0.3243114948272705,-0.11623375117778778
1773230420978180400,4.596180419921875,0.18577098846435547,-0.19147956371307373,-0.11234252154827118
1773230420994172200,4.612172119140625,0.04834938049316406,-0.22895479202270508,-0.13369342684745789
1773230421010193000,4.62819287109375,-0.02206707000732422,-0.3545435667037964,0.030259564518928528
1773230421026184400,4.644184326171875,0.1182870864868164,-0.09960699081420898,-0.04733527824282646
1773230421042175200,4.66017529296875,0.0765523910522461,0.0326998233795166,-0.1982954740524292
1773230421058198500,4.676198486328125,-0.16413497924804688,-0.05272018909454346,-0.16825561225414276
1773230421074188300,4.692188232421875,-0.29993247985839844,0.003404378890991211,-0.10050013661384583
1773230421090179800,4.708179931640625,0.07572460174560547,0.13622570037841797,-0.23825058341026306
1773230421106202600,4.72420263671875,0.2795143127441406,0.09137594699859619,-0.33610469102859497
1773230421122193000,4.74019287109375,0.0697011947631836,0.1559525728225708,-0.20995193719863892
1773230421138183200,4.75618310546875,0.21591854095458984,0.1957172155380249,-0.09038461744785309
1773230421154176300,4.77217626953125,0.3572988510131836,0.11594057083129883,-0.0021790247410535812
1773230421170196700,4.78819677734375,0.16214847564697266,0.04718160629272461,-0.08072050660848618
1773230421186188000,4.80418798828125,-0.10711193084716797,0.26523423194885254,0.15698233246803284
1773230421202179600,4.8201796875,0.051140785217285156,0.3717334270477295,0.02563556097447872
1773230421218200600,4.83620068359375,0.12116241455078125,0.25120651721954346,-0.050686340779066086
1773230421234193200,4.852193115234375,-0.13363933563232422,-0.09386193752288818,0.18052944540977478
1773230421250182700,4.8681826171875,-0.09684276580810547,0.11203992366790771,0.15734225511550903
1773230421266175200,4.88417529296875,0.1882162094116211,0.42968297004699707,-0.10492317378520966
1773230421282197500,4.900197509765625,0.1676034927368164,0.2810460329055786,-0.023223603144288063
1773230421298188500,4.9161884765625,-0.18728351593017578,0.06049168109893799,0.11180566996335983
1773230421314179800,4.932179931640625,-0.17598628997802734,0.14467895030975342,0.002095291391015053
1773230421330200300,4.948200439453125,0.0814523696899414,0.3199080228805542,0.11038050055503845
1773230421346191400,4.96419140625,-0.0816793441772461,0.22275197505950928,0.010687945410609245
1773230421362182100,4.98018212890625,-0.40448570251464844,0.12422490119934082,0.050329674035310745
1773230421378175000,4.996175048828125,-0.26891040802001953,-0.000910639762878418,0.12730595469474792
1773230421394195500,5.012195556640625,0.13607406616210938,0.11689722537994385,0.20457477867603302
1773230421410187500,5.0281875,-0.03757762908935547,0.18050134181976318,0.07924794405698776
1773230421426178800,5.0441787109375,-0.5505886077880859,-0.09897089004516602,0.2290136218070984
1773230421442170600,5.060170654296875,-0.6356592178344727,-0.20761418342590332,0.25751155614852905
1773230421458192400,5.0761923828125,-0.1396350860595703,-0.0254361629486084,0.30508953332901
1773230421474180400,5.092180419921875,0.1310739517211914,0.1724613904953003,0.13595961034297943
1773230421490174000,5.108174072265625,0.11700820922851562,0.07524669170379639,0.07833430171012878
1773230421506195500,5.124195556640625,0.08147621154785156,-0.06301558017730713,0.33687442541122437
1773230421522187500,5.1401875,0.2969207763671875,0.004348635673522949,0.28041979670524597
1773230421538177300,5.15617724609375,0.43101978302001953,0.056969523429870605,0.19874554872512817
1773230421554200000,5.172199951171875,0.1830120086669922,-0.08685958385467529,0.13089746236801147
1773230421570190800,5.18819091796875,-0.1790294647216797,-0.16805732250213623,0.0890451967716217
1773230421586183700,5.20418359375,-0.2757911682128906,-0.2660108804702759,-0.015291821211576462
1773230421602174700,5.2201748046875,-0.24416732788085938,-0.12504565715789795,-0.10604225099086761
1773230421618195700,5.23619580078125,-0.07448482513427734,-0.11168110370635986,-0.17774280905723572
1773230421634185500,5.252185546875,0.11105728149414062,-0.15098083019256592,-0.07284633070230484
1773230421650177800,5.268177734375,0.10964298248291016,-0.25616908073425293,0.04700750112533569
1773230421666200300,5.284200439453125,0.1751565933227539,-0.32255029678344727,0.0381641611456871
1773230421682192000,5.30019189453125,0.13785552978515625,-0.14550626277923584,0.1715947687625885
1773230421698181600,5.316181640625,-0.08278942108154297,0.052735209465026855,-0.08623488247394562
1773230421714174000,5.332174072265625,-0.3794517517089844,0.11872923374176025,0.07651036977767944
1773230421730195500,5.348195556640625,-0.1597118377685547,-0.003051280975341797,0.06913166493177414
1773230421746187000,5.36418701171875,0.06725025177001953,-0.010284662246704102,0.011770699173212051
1773230421762177300,5.38017724609375,-0.10671806335449219,-0.07922518253326416,-0.13208496570587158
1773230421778200300,5.396200439453125,-0.20351791381835938,-0.02164292335510254,-0.08198168128728867
1773230421794191000,5.412191162109375,-0.15206146240234375,0.13504981994628906,-0.24366450309753418
1773230421810181400,5.428181396484375,-0.26067256927490234,0.11758601665496826,-0.35548079013824463
1773230421826204200,5.4442041015625,-0.20908164978027344,0.08445608615875244,-0.2680546045303345
1773230421842193400,5.460193359375,0.03313636779785156,0.1756986379623413,-0.1939777433872223
1773230421858186800,5.476186767578125,0.31770896911621094,0.13900518417358398,-0.07071958482265472
1773230421874177800,5.492177734375,0.14627647399902344,0.014402985572814941,-0.17366422712802887
1773230421890199600,5.508199462890625,-0.04487037658691406,-0.11696195602416992,-0.06968388706445694
1773230421906189000,5.52418896484375,0.0802469253540039,-0.01471710205078125,0.038721323013305664
1773230421922181000,5.54018115234375,0.28211021423339844,0.2258836030960083,0.04627133905887604
1773230421938203600,5.55620361328125,-0.027338027954101562,0.24605226516723633,-0.21335874497890472
1773230421954195200,5.5721953125,-0.6070413589477539,0.0998542308807373,-0.1950218826532364
1773230421970184700,5.588184814453125,-0.13339805603027344,0.21724557876586914,-0.02399776689708233
1773230421986176800,5.6041767578125,0.5219650268554688,0.3352940082550049,-0.009970592334866524
1773230422002198500,5.620198486328125,0.617584228515625,0.2761423587799072,-0.005975639447569847
1773230422018188800,5.636188720703125,0.08315277099609375,0.16899895668029785,0.13204528391361237
1773230422034180000,5.65218017578125,-0.00391387939453125,0.19047212600708008,0.18847067654132843
1773230422050203000,5.668202880859375,0.0662221908569336,0.10811567306518555,0.11285126954317093
1773230422066195000,5.68419482421875,-0.3853178024291992,-0.13113677501678467,0.04995455592870712
1773230422082185500,5.700185546875,-0.4450407028198242,0.057364463806152344,0.036254968494176865
1773230422098175500,5.716175537109375,0.1232900619506836,0.14105916023254395,-0.02044350653886795
1773230422114198000,5.732197998046875,0.3011465072631836,0.13485479354858398,-0.17850340902805328
1773230422130188800,5.748188720703125,0.20638561248779297,-0.014066219329833984,-0.04549797996878624
1773230422146180600,5.7641806640625,0.4371185302734375,-0.07616448402404785,0.09086564183235168
1773230422162202400,5.780202392578125,0.4916057586669922,-0.1379913091659546,0.0818614512681961
1773230422178194200,5.796194091796875,0.14793968200683594,-0.01882481575012207,0.08973963558673859
1773230422194185000,5.81218505859375,-0.22896575927734375,-0.04461789131164551,-0.05690737068653107
1773230422210176300,5.82817626953125,-0.17139625549316406,-0.14325940608978271,0.047462742775678635
1773230422226198000,5.844197998046875,0.3043642044067383,-0.10643351078033447,0.04128364846110344
1773230422242188000,5.86018798828125,0.13268184661865234,-0.20797741413116455,0.10515812784433365
1773230422258179000,5.876178955078125,0.05737781524658203,-0.29805994033813477,0.2551405429840088
1773230422274200800,5.892200927734375,-0.24848461151123047,-0.22417795658111572,-0.025484789162874222
1773230422290122500,5.90812255859375,-0.3176755905151367,-0.024086952209472656,-0.13559183478355408
1773230422306115300,5.924115234375,-0.40142059326171875,-0.17262780666351318,0.0036079250276088715
1773230422322105000,5.94010498046875,-0.5263404846191406,-0.28069376945495605,-0.041835326701402664
1773230422338127400,5.95612744140625,-0.2904682159423828,-0.21533715724945068,0.12608732283115387
1773230422354119000,5.972118896484375,-0.10956001281738281,-0.023558855056762695,-0.03409622237086296
1773230422370110700,5.98811083984375,-0.00981903076171875,-0.02204453945159912,-0.0455443374812603
1773230422386131500,6.00413134765625,-0.0752115249633789,-0.06634199619293213,-0.01138995960354805
1773230422402122500,6.02012255859375,0.21609020233154297,-0.017049670219421387,0.05376512557268143
1773230422418115300,6.036115234375,0.3397541046142578,0.042046308517456055,0.032385725528001785
1773230422434104300,6.052104248046875,0.1785755157470703,-0.004528641700744629,0.06855495274066925
1773230422450097200,6.06809716796875,-0.06635284423828125,-0.0130082368850708,0.027921590954065323
1773230422466120200,6.0841201171875,-0.03821372985839844,0.09764754772186279,0.1050887405872345
1773230422482110500,6.1001103515625,-0.05063629150390625,0.20052862167358398,-0.002949278801679611
1773230422498132000,6.116132080078125,-0.20577049255371094,0.04738664627075195,-0.0677792951464653
1773230422514123000,6.132123046875,-0.3463144302368164,-0.006332993507385254,-0.028051642701029778
1773230422530113300,6.14811328125,-0.2314586639404297,-0.044319748878479004,-0.030438903719186783
1773230422546105000,6.16410498046875,0.012136459350585938,0.001732468605041504,-0.12302516400814056
1773230422562126800,6.180126953125,0.07428932189941406,0.2559622526168823,-0.3041318655014038
1773230422578116000,6.1961162109375,0.2111978530883789,0.23700082302093506,-0.1866329461336136
1773230422594109000,6.21210888671875,0.4423093795776367,0.22352850437164307,0.07201153039932251
1773230422610130700,6.228130615234375,0.5178022384643555,0.24840021133422852,0.19844114780426025
1773230422626121200,6.244121337890625,0.501276969909668,0.19456017017364502,0.22777479887008667
1773230422642111700,6.26011181640625,-0.020524978637695312,0.14140796661376953,0.03829754516482353
1773230422658135600,6.276135498046875,-0.3671293258666992,0.005002021789550781,0.06871865689754486
1773230422674126800,6.292126953125,-0.33915138244628906,0.19580483436584473,-0.08603277802467346
1773230422690116900,6.308116943359375,-0.036617279052734375,0.1843259334564209,-0.21937040984630585
1773230422706108700,6.324108642578125,0.224761962890625,0.0649116039276123,-0.17836356163024902
1773230422722129200,6.340129150390625,0.4440450668334961,0.22778034210205078,-0.05708349496126175
1773230422738119400,6.356119384765625,0.9588556289672852,0.2057431936264038,0.0779355838894844
1773230422754113000,6.372113037109375,0.8434906005859375,-0.03865659236907959,0.18132109940052032
1773230422770103300,6.388103271484375,0.07961082458496094,-0.09029245376586914,0.18240147829055786
1773230422786125800,6.404125732421875,-0.38061046600341797,-0.01774430274963379,0.2456343173980713
1773230422802116900,6.420116943359375,-0.2844104766845703,-0.10121798515319824,0.08789868652820587
1773230422818108200,6.436108154296875,-0.31740283966064453,-0.20911085605621338,-0.04018712043762207
1773230422834129400,6.45212939453125,-0.4318580627441406,-0.230505108833313,-0.07080204039812088
1773230422850120000,6.468119873046875,-0.17426395416259766,-0.16826140880584717,-0.22974535822868347
1773230422866111700,6.48411181640625,0.09916305541992188,-0.1900731325149536,-0.166086345911026
1773230422882134500,6.500134521484375,0.26989078521728516,-0.23233401775360107,-0.02180672436952591
1773230422898125300,6.516125244140625,0.20427417755126953,-0.1535423994064331,0.053208187222480774
1773230422914116400,6.532116455078125,0.055390357971191406,-0.1922527551651001,0.1269409954547882
1773230422930107000,6.54810693359375,-0.2919626235961914,-0.2488163709640503,0.2046697735786438
1773230422946126300,6.564126220703125,-0.5147333145141602,-0.20516157150268555,0.23970293998718262
1773230422962119000,6.580118896484375,-0.5005874633789062,-0.2065063714981079,0.1777786910533905
1773230422978110200,6.596110107421875,-0.6469354629516602,-0.3270893096923828,0.2168651521205902
1773230422994133500,6.612133544921875,-0.774357795715332,-0.26213669776916504,0.13381913304328918
1773230423010123800,6.628123779296875,-0.5454740524291992,-0.12572312355041504,0.01687365025281906
1773230423026115300,6.644115234375,-0.2093334197998047,-0.1329188346862793,-0.018143706023693085
1773230423042104000,6.66010400390625,-0.005036354064941406,-0.09366190433502197,-0.03954064100980759
1773230423058127400,6.67612744140625,-0.0681142807006836,-0.03909122943878174,-0.02536138892173767
1773230423074120000,6.692119873046875,-0.12081336975097656,-0.08459925651550293,0.04014035314321518
1773230423090110500,6.7081103515625,-0.16591930389404297,0.021000266075134277,0.12281619012355804
1773230423106132700,6.7241328125,-0.13918113708496094,0.09306514263153076,0.03638550639152527
1773230423122122800,6.740122802734375,0.0759592056274414,0.2550547122955322,0.06713675707578659
1773230423138114800,6.75611474609375,0.6490468978881836,0.35100364685058594,0.09883381426334381
1773230423154107000,6.77210693359375,1.0525150299072266,0.3158153295516968,0.19215041399002075
1773230423170127600,6.788127685546875,0.8780155181884766,0.3142431974411011,0.3252151310443878
1773230423186119000,6.804118896484375,0.778681755065918,0.4348512887954712,0.3249049782752991
1773230423202110000,6.82010986328125,0.42179203033447266,0.4501127004623413,0.38848355412483215
1773230423218132000,6.836132080078125,0.029320716857910156,0.37553417682647705,0.20117120444774628
1773230423234121000,6.852120849609375,-0.27472877502441406,0.25898420810699463,0.16267693042755127
1773230423250114000,6.868114013671875,0.10759639739990234,0.16248571872711182,0.04221205413341522
1773230423266104800,6.884104736328125,0.2599630355834961,0.42546725273132324,-0.33914899826049805
1773230423282126000,6.9001259765625,0.2301931381225586,0.48133420944213867,-0.42104387283325195
1773230423298117000,6.9161171875,0.3771095275878906,0.1589679718017578,-0.3098352551460266
1773230423314108200,6.932108154296875,0.5957269668579102,0.07160758972167969,-0.09146524965763092
1773230423330131200,6.948131103515625,0.3296375274658203,0.24834561347961426,-0.024712491780519485
1773230423346122000,6.9641220703125,-0.573307991027832,-0.07216048240661621,-0.13542360067367554
1773230423362112800,6.98011279296875,-1.274744987487793,-0.26245272159576416,-0.0014656521379947662
1773230423378105600,6.996105712890625,-1.4276466369628906,0.05772805213928223,-0.14941635727882385
1773230423394123800,7.012123779296875,-0.8333215713500977,0.22019195556640625,-0.2358102798461914
1773230423410117000,7.0281171875,-0.6436557769775391,-0.08881115913391113,-0.3932773470878601
1773230423426108200,7.044108154296875,-0.33111572265625,-0.06457066535949707,-0.12030553072690964
1773230423442130000,7.0601298828125,0.5424709320068359,0.20400118827819824,-0.14101310074329376
1773230423466114800,7.08411474609375,0.7722902297973633,0.10821366310119629,-0.34775397181510925
1773230423482108400,7.1001083984375,0.022855758666992188,-0.053457021713256836,-0.175972580909729
1773230423498129000,7.11612890625,-0.14306163787841797,-0.06363177299499512,-0.20069050788879395
1773230423514119700,7.13211962890625,-0.1396474838256836,-0.01569390296936035,-0.24105899035930634
1773230423530113500,7.148113525390625,-0.20664596557617188,-0.2409120798110962,-0.2312207967042923
1773230423546103800,7.164103759765625,-0.01937580108642578,-0.24427998065948486,-0.31722062826156616
1773230423562125000,7.180125,0.5752477645874023,-0.13754653930664062,-0.35893139243125916
1773230423578116600,7.19611669921875,0.9521722793579102,-0.16074097156524658,-0.2470397800207138
1773230423594107000,7.21210693359375,0.7418327331542969,-0.19189012050628662,-0.0074972230941057205
1773230423610128600,7.228128662109375,0.446563720703125,-0.21217644214630127,0.040628984570503235
1773230423626119000,7.244118896484375,0.09451770782470703,-0.38650667667388916,0.19250881671905518
1773230423642111000,7.260111083984375,-0.13376712799072266,-0.47114789485931396,0.27450525760650635
1773230423658133000,7.276133056640625,-0.2669525146484375,-0.23896515369415283,0.14509911835193634
1773230423674123300,7.292123291015625,-0.2941246032714844,-0.0505833625793457,-0.1171511858701706
1773230423690115600,7.308115478515625,-0.5217933654785156,-0.15730369091033936,-0.001316562294960022
1773230423706108000,7.32410791015625,-0.4009065628051758,-0.19708621501922607,0.07246935367584229
1773230423722127600,7.340127685546875,-0.041286468505859375,-0.025225400924682617,0.18546763062477112
1773230423738119200,7.356119140625,0.17299652099609375,-0.021898746490478516,0.21461865305900574
1773230423754112000,7.372112060546875,-0.2885475158691406,0.023412227630615234,0.25999581813812256
1773230423770132200,7.38813232421875,-0.6702451705932617,-0.02864980697631836,0.1688365936279297
1773230423786123800,7.404123779296875,-0.4567394256591797,-0.06178617477416992,0.20483696460723877
1773230423802115800,7.42011572265625,-0.038664817810058594,0.07901239395141602,0.113795705139637
1773230423818107000,7.43610693359375,0.2094278335571289,0.15756487846374512,0.12627233564853668
1773230423834126000,7.4521259765625,0.16669273376464844,-0.03566098213195801,0.0771830826997757
1773230423850119700,7.46811962890625,-0.062213897705078125,-0.10235977172851562,0.10844054073095322
1773230423866110500,7.4841103515625,-0.12420177459716797,-0.03182721138000488,0.14154624938964844
1773230423882132000,7.500132080078125,0.11971759796142578,-0.016106605529785156,0.16097192466259003
1773230423898122200,7.516122314453125,0.1796092987060547,0.02202010154724121,0.24821880459785461
1773230423914113800,7.53211376953125,-0.058892250061035156,0.13017535209655762,0.021883074194192886
1773230423930106400,7.5481064453125,-0.26118946075439453,0.08851051330566406,-0.06078486889600754
1773230423946126600,7.564126708984375,-0.2225208282470703,-0.13108837604522705,0.020560959354043007
1773230423962119000,7.580118896484375,0.2146310806274414,-0.006706714630126953,0.35412776470184326
1773230423978110500,7.5961103515625,0.4367942810058594,0.23748183250427246,0.0004763123579323292
1773230423994130700,7.612130615234375,-0.1125640869140625,-0.041675567626953125,0.10888674855232239
1773230424010122800,7.628122802734375,-0.3198556900024414,-0.28825902938842773,0.15773078799247742
1773230424026113800,7.64411376953125,-0.18839263916015625,-0.181878924369812,0.11608820408582687
1773230424042104800,7.660104736328125,0.10580635070800781,-0.2451552152633667,-0.03691179305315018
1773230424058127000,7.676127197265625,0.014404296875,-0.1641331911087036,-0.09113836288452148
1773230424074116400,7.692116455078125,0.1489553451538086,-0.08319449424743652,-0.1999656707048416
1773230424090108400,7.7081083984375,0.533721923828125,-0.3868149518966675,0.1297370046377182
1773230424106129200,7.724129150390625,0.7319011688232422,-0.36308753490448,0.04865545779466629
1773230424122121700,7.740121826171875,0.33232784271240234,-0.4221475124359131,0.0783424824476242
1773230424138113300,7.75611328125,0.03685188293457031,-0.6019165515899658,0.09081438928842545
1773230424154104600,7.7721044921875,0.12044620513916016,-0.44552695751190186,-0.11328618973493576
1773230424170125800,7.788125732421875,0.17467498779296875,-0.4508233070373535,-0.2376367151737213
1773230424186115300,7.804115234375,0.0921945571899414,-0.7370080947875977,-0.11672288179397583
1773230424202107000,7.82010693359375,0.18337059020996094,-0.6576948165893555,-0.27041852474212646
1773230424218131000,7.836130859375,0.29616737365722656,-0.39843928813934326,-0.2383800446987152
1773230424234120200,7.8521201171875,0.25706005096435547,-0.5143239498138428,-0.14279936254024506
1773230424250112000,7.868112060546875,-0.24312877655029297,-0.7166006565093994,-0.06653791666030884
1773230424266103300,7.884103271484375,-0.16708946228027344,-0.859058141708374,0.15140055119991302
1773230424282125000,7.900125,-0.3155479431152344,-0.6377999782562256,0.13370130956172943
1773230424298115600,7.916115478515625,-0.6655969619750977,-0.4559727907180786,-0.16212984919548035
1773230424314108200,7.932108154296875,-1.0571393966674805,-0.3862955570220947,-0.2191305011510849
1773230424330129200,7.948129150390625,-0.7883939743041992,-0.4189506769180298,-0.09880875051021576
1773230424346120400,7.964120361328125,-0.02408599853515625,-0.3461422920227051,0.21664266288280487
1773230424362110500,7.9801103515625,0.42178916931152344,-0.014263749122619629,0.13493245840072632
1773230424378102800,7.996102783203125,0.05191230773925781,-0.1292959451675415,0.15345197916030884
1773230424394123300,8.012123291015625,-0.4862232208251953,-0.31950318813323975,0.21305546164512634
1773230424410115600,8.028115478515625,-0.43384742736816406,-0.14536595344543457,0.0033274637535214424
1773230424426104600,8.0441044921875,0.17516040802001953,0.1846315860748291,-0.09624113142490387
1773230424442129200,8.060129150390624,0.6857328414916992,0.17638909816741943,-0.04335983470082283
1773230424458118400,8.076118408203126,0.8380146026611328,0.043337464332580566,0.1591135710477829
1773230424474110200,8.092110107421876,0.5893125534057617,-0.01832127571105957,0.19911494851112366
1773230424490102500,8.1081025390625,0.061440467834472656,-0.045120954513549805,0.0592552125453949
1773230424506124000,8.1241240234375,-0.5718173980712891,-0.19612717628479004,0.09685809165239334
1773230424522115600,8.140115478515625,-0.7245731353759766,-0.44320428371429443,0.17217794060707092
1773230424538105900,8.15610595703125,-0.6458301544189453,-0.30513906478881836,0.020365435630083084
1773230424554128600,8.172128662109374,-0.50762939453125,0.024510502815246582,-0.4366607069969177
1773230424570119000,8.188118896484376,-0.38236427307128906,-0.1881777048110962,-0.4359132647514343
1773230424586110500,8.2041103515625,0.4093179702758789,-0.4246184825897217,-0.017993411049246788
1773230424602102000,8.22010205078125,1.1697235107421875,-0.13555169105529785,-0.11835790425539017
1773230424618122200,8.236122314453125,0.8768434524536133,0.08969342708587646,-0.12930716574192047
1773230424634113800,8.25211376953125,0.2142782211303711,-0.09863471984863281,0.13707078993320465
1773230424650104300,8.268104248046875,0.061852455139160156,-0.04622995853424072,0.07715465873479843
1773230424666124300,8.284124267578125,0.20668888092041016,0.08055436611175537,-0.01963752694427967
1773230424682116400,8.300116455078125,0.049897193908691406,0.1185528039932251,-0.048387560993433
1773230424698109200,8.316109130859376,0.009230613708496094,0.22602391242980957,-0.14928901195526123
1773230424714099700,8.332099609375,0.48453426361083984,0.2522754669189453,-0.10543102025985718
1773230424730122800,8.348122802734375,0.7303314208984375,0.044286489486694336,0.024058736860752106
1773230424746114000,8.364114013671875,0.3259906768798828,-0.14664912223815918,0.07685253769159317
1773230424762104300,8.380104248046875,0.031950950622558594,-0.09448063373565674,0.1325068473815918
1773230424778125800,8.396125732421876,-0.0036716461181640625,0.01857578754425049,-0.048888273537158966
1773230424794116600,8.41211669921875,-0.37852954864501953,-0.06449925899505615,-0.07550101727247238
1773230424810109000,8.42810888671875,-0.7434816360473633,-0.3482626676559448,0.009028306230902672
1773230424826131000,8.444130859375,-0.6595001220703125,-0.43555212020874023,-0.07975443452596664
1773230424842121200,8.460121337890625,-0.11523723602294922,-0.10706329345703125,-0.34256282448768616
1773230424858113300,8.47611328125,0.19371509552001953,0.005378127098083496,-0.40283533930778503
1773230424874103300,8.492103271484375,0.23701190948486328,-0.1340547800064087,-0.20565076172351837
1773230424890125300,8.508125244140626,0.3547849655151367,-0.18396055698394775,0.0804075300693512
1773230424906114800,8.52411474609375,0.27957916259765625,-0.14884579181671143,0.18166068196296692
1773230424922108200,8.540108154296876,-0.2682323455810547,-0.09426212310791016,0.06726597249507904
1773230424938129400,8.55612939453125,-0.7483968734741211,-0.14658033847808838,0.07073445618152618
1773230424954119400,8.572119384765625,-0.6929140090942383,-0.024731040000915527,0.02289261855185032
1773230424970111500,8.588111572265625,-0.5090255737304688,0.08358073234558105,0.030471380800008774
1773230424986104300,8.604104248046875,-0.5216045379638672,0.04439342021942139,0.1870807260274887
1773230425002124500,8.62012451171875,-0.52203369140625,-0.14912760257720947,0.22813747823238373
1773230425018116400,8.636116455078126,-0.38614654541015625,-0.31773293018341064,0.354859322309494
1773230425034106600,8.652106689453126,0.012509346008300781,-0.190513014793396,0.13595277070999146
1773230425050129200,8.668129150390625,0.22689151763916016,0.04151773452758789,-0.09151914715766907
1773230425066120400,8.684120361328125,0.1618032455444336,-0.139970064163208,-0.055182598531246185
1773230425082112000,8.700112060546875,0.09172534942626953,-0.35598838329315186,0.22067728638648987
1773230425098102300,8.716102294921875,0.2147674560546875,-0.1261049509048462,0.12997037172317505
1773230425114124500,8.73212451171875,0.4314556121826172,0.20258855819702148,0.03574753180146217
1773230425130115300,8.748115234375,0.45470428466796875,0.3052399158477783,0.06679408252239227
1773230425146105600,8.764105712890625,0.1291370391845703,-0.03513765335083008,0.277329683303833
1773230425162128600,8.780128662109375,-0.14028167724609375,-0.20775413513183594,0.3246643543243408
1773230425178119700,8.79611962890625,-0.371612548828125,-0.024500489234924316,0.04140903055667877
1773230425194111700,8.81211181640625,-0.3117809295654297,0.23662567138671875,-0.2905452847480774
1773230425210101200,8.828101318359375,-0.02084064483642578,0.06935596466064453,-0.19472652673721313
1773230425226124000,8.8441240234375,0.37486839294433594,-0.07966828346252441,-0.024575604125857353
1773230425242114000,8.860114013671875,0.37156009674072266,-0.054434776306152344,-0.027668088674545288
1773230425258105000,8.87610498046875,-0.03265666961669922,-0.24865102767944336,-0.12058018147945404
1773230425274128100,8.892128173828125,-0.1424713134765625,-0.2795112133026123,0.08703775703907013
1773230425290119400,8.908119384765625,-0.13521289825439453,0.09590780735015869,-0.06549516320228577
1773230425306110000,8.92410986328125,-0.06286334991455078,0.11174464225769043,-0.1250195950269699
1773230425322101800,8.940101806640625,-0.20821189880371094,0.1335536241531372,-0.23273438215255737
1773230425338122500,8.95612255859375,-0.04854869842529297,0.21981215476989746,0.022776808589696884
1773230425354114000,8.972114013671876,0.6226329803466797,0.11544227600097656,0.12191139161586761
1773230425370106400,8.9881064453125,0.6489753723144531,0.11069536209106445,-0.051327016204595566
1773230425386124300,9.004124267578124,-0.11311054229736328,-0.05122482776641846,0.07359813898801804
1773230425402118400,9.020118408203125,-0.42572879791259766,-0.12985801696777344,0.02860577031970024
1773230425418108200,9.036108154296874,-0.11986541748046875,0.04159748554229736,-0.32508009672164917
1773230425434098400,9.052098388671874,0.2738227844238281,-0.1098322868347168,-0.16620415449142456
1773230425450122500,9.06812255859375,0.5837192535400391,-0.09123003482818604,-0.15378980338573456
1773230425466110700,9.08411083984375,0.34827518463134766,-0.030774474143981934,-0.1682504266500473
1773230425482103600,9.100103515625,-0.09680652618408203,-0.2718468904495239,-0.005902610719203949
1773230425498125600,9.11612548828125,-0.37137413024902344,-0.288960337638855,0.11544011533260345
1773230425514116600,9.13211669921875,-0.5290145874023438,-0.23162591457366943,0.11561748385429382
1773230425530108200,9.148108154296875,-0.5265378952026367,-0.2153719663619995,0.049813538789749146
1773230425546100000,9.164099853515625,-0.5548515319824219,-0.04806685447692871,-0.09194941818714142
1773230425562121500,9.18012158203125,-0.5687999725341797,-0.026751041412353516,-0.11534754931926727
1773230425578112300,9.1961123046875,-0.41590213775634766,0.0018590688705444336,0.026472924277186394
1773230425594104800,9.212104736328126,-0.012310028076171875,0.058989524841308594,0.13801343739032745
1773230425610126000,9.2281259765625,0.278961181640625,0.12917590141296387,0.21331407129764557
1773230425626117000,9.2441171875,0.2505769729614258,0.09346640110015869,0.2329195886850357
1773230425642107400,9.260107421875,0.13662147521972656,0.06085813045501709,0.20117869973182678
1773230425658130000,9.2761298828125,0.199493408203125,-0.0316234827041626,0.11751092970371246
1773230425674120700,9.29212060546875,0.417327880859375,-0.1531200408935547,0.11192907392978668
1773230425690113000,9.308113037109376,0.7780132293701172,-0.18549752235412598,0.1091497465968132
1773230425706103300,9.324103271484375,1.003800392150879,-0.23889565467834473,0.005160816013813019
1773230425722125600,9.34012548828125,0.8607816696166992,-0.5095180869102478,-0.02473025768995285
1773230425738115600,9.356115478515624,0.4089345932006836,-0.8998895883560181,-0.022919833660125732
1773230425754105900,9.37210595703125,-0.23086166381835938,-1.1742318868637085,-0.022182703018188477
1773230425770129000,9.38812890625,-0.3784170150756836,-1.1061593294143677,0.15327712893486023
1773230425786121200,9.404121337890626,-0.24813270568847656,-0.7609311938285828,-0.16795605421066284
1773230425802112300,9.4201123046875,-0.1389598846435547,-0.5784396529197693,-0.22269728779792786
1773230425818102500,9.4361025390625,-0.0192108154296875,-0.7118412256240845,-0.15236060321331024
1773230425834123500,9.45212353515625,0.06799793243408203,-0.649516224861145,-0.07589852064847946
1773230425850116000,9.4681162109375,-0.19283771514892578,-0.6605452299118042,-0.15849997103214264
1773230425866107000,9.48410693359375,-0.3952779769897461,-0.9037207365036011,-0.03102908842265606
1773230425882097200,9.50009716796875,-0.35352134704589844,-0.6644928455352783,0.1714581549167633
1773230425898120700,9.51612060546875,-0.28975677490234375,-0.4142141342163086,-0.13324366509914398
1773230425914111000,9.532111083984375,-0.5862283706665039,-0.5376453399658203,-0.06746666878461838
1773230425930102000,9.54810205078125,-0.7815561294555664,-0.575795590877533,0.00008588843047618866
1773230425946123000,9.564123046875,-0.3834400177001953,-0.24389326572418213,-0.24569649994373322
1773230425962114600,9.580114501953124,0.1007232666015625,-0.2521117925643921,-0.352676123380661
1773230425978105000,9.59610498046875,0.27854347229003906,-0.15088844299316406,-0.23716259002685547
1773230425994098400,9.612098388671875,0.5211858749389648,0.075977623462677,-0.26592010259628296
1773230426010119200,9.628119140625,0.6858148574829102,0.17448151111602783,-0.08331239968538284
1773230426026111500,9.644111572265626,0.2621889114379883,0.2445797324180603,0.02651113271713257
1773230426042100700,9.660100830078125,0.11162090301513672,0.37774229049682617,-0.0006139129400253296
1773230426058123800,9.676123779296875,0.15047454833984375,0.5702522397041321,0.07399734854698181
1773230426074112000,9.692112060546876,-0.1350860595703125,0.6875960230827332,-0.09497445076704025
1773230426090105000,9.70810498046875,-0.27535247802734375,0.8434897065162659,0.0505332350730896
1773230426106127600,9.724127685546875,-0.2779064178466797,1.1723978519439697,-0.0738871842622757
1773230426122118000,9.740117919921875,-0.5644454956054688,1.1439725160598755,0.17100737988948822
1773230426138110500,9.7561103515625,-0.49363136291503906,1.134451150894165,0.043779827654361725
1773230426154100000,9.772099853515625,-0.2991209030151367,1.1985034942626953,0.22825169563293457
1773230426170122000,9.7881220703125,-0.32030200958251953,1.3787115812301636,0.25228938460350037
1773230426186113000,9.804113037109374,-0.4734458923339844,1.646650791168213,0.09055520594120026
1773230426202103800,9.820103759765624,-0.14568805694580078,1.8988670110702515,-0.018199831247329712
1773230426218126600,9.836126708984375,0.20685768127441406,1.7402456998825073,0.039381951093673706
1773230426234116400,9.852116455078125,0.4784870147705078,1.4899429082870483,-0.02316129207611084
1773230426250109400,9.868109375,0.29224300384521484,1.1411038637161255,-0.3709368109703064
1773230426266099200,9.88409912109375,0.4846811294555664,0.7022594213485718,-0.22598184645175934
1773230426282122200,9.900122314453125,-0.49268531799316406,-0.04665505886077881,-0.0885804295539856
1773230426298111700,9.91611181640625,-1.5167388916015625,-0.22425389289855957,-0.07984203100204468
1773230426314104600,9.9321044921875,-1.467757225036621,0.14107394218444824,-0.24482455849647522
1773230426330094800,9.9480947265625,-0.7346172332763672,0.571036696434021,-0.10554498434066772
1773230426346116000,9.9641162109375,-0.13533592224121094,0.98442542552948,-0.2500743567943573
1773230426362108200,9.980108154296875,0.4846181869506836,1.0982131958007812,0.07101650536060333
1773230426378099700,9.996099609375,1.3997383117675781,0.9950652122497559,0.15414577722549438
1773230426394121500,10.01212158203125,1.4496335983276367,0.8168681859970093,0.3066573739051819
1773230426410110500,10.0281103515625,0.7600040435791016,0.41368377208709717,0.6033477187156677
1773230426426104000,10.04410400390625,0.3656015396118164,0.35439109802246094,0.2195034623146057
1773230426442125600,10.06012548828125,0.11518383026123047,0.19399452209472656,-0.018689751625061035
1773230426458116400,10.076116455078125,-0.4437112808227539,-0.3471543788909912,0.04786594212055206
1773230426474107000,10.09210693359375,-0.8532009124755859,-0.5561292171478271,-0.15444181859493256
1773230426490098700,10.1080986328125,-0.5687398910522461,-0.659571647644043,-0.4164639711380005
1773230426506119700,10.12411962890625,-0.2667570114135742,-0.5746583938598633,-0.5446027517318726
1773230426522111500,10.140111572265624,-0.3546867370605469,-0.6971559524536133,-0.42741090059280396
1773230426538101800,10.156101806640624,-0.1999797821044922,-0.746565580368042,-0.365543007850647
1773230426554125300,10.172125244140625,-0.050693511962890625,-0.6050804853439331,-0.023468509316444397
1773230426570116000,10.1881162109375,0.15370464324951172,-0.3455069065093994,0.010368302464485168
1773230426586105900,10.20410595703125,0.057342529296875,-0.1651911735534668,-0.004803076386451721
1773230426602096400,10.220096435546875,0.12799549102783203,0.06696593761444092,0.08161824196577072
1773230426618120000,10.236119873046874,0.04610919952392578,0.3159468173980713,0.121797114610672
1773230426634111200,10.252111328125,-0.291748046875,0.3266078233718872,0.2331337183713913
1773230426650101800,10.268101806640624,-0.5121469497680664,0.5302335023880005,0.09792255610227585
1773230426666121200,10.284121337890625,-0.13973236083984375,0.7997547388076782,0.1688746064901352
1773230426682114000,10.300114013671875,0.4589567184448242,0.7103961706161499,0.2392212450504303
1773230426698105000,10.31610498046875,0.3318624496459961,0.5412726402282715,0.2646729350090027
1773230426714096400,10.332096435546875,-0.16156291961669922,0.5135633945465088,0.2004985362291336
1773230426730116600,10.34811669921875,-0.610346794128418,0.5166323184967041,0.16626080870628357
1773230426746110700,10.36411083984375,-0.7103071212768555,0.5245168209075928,-0.006329834461212158
1773230426762101200,10.380101318359374,-0.7510251998901367,0.6634926795959473,-0.13690200448036194
1773230426778123300,10.396123291015625,-0.7130746841430664,0.4843786954879761,-0.12396933138370514
1773230426794114000,10.412114013671875,-0.7240743637084961,0.3947446346282959,-0.24242326617240906
1773230426810105900,10.42810595703125,-0.45419883728027344,0.38016295433044434,-0.16826486587524414
1773230426826096000,10.44409619140625,0.14087867736816406,0.4159533977508545,-0.15221406519412994
1773230426842117000,10.4601171875,0.6192083358764648,0.36806535720825195,0.04557390511035919
1773230426858109200,10.476109130859374,0.7882061004638672,0.32486867904663086,0.00962965190410614
1773230426874099700,10.492099609375,0.5014276504516602,-0.0016465187072753906,0.15861369669437408
1773230426890122500,10.50812255859375,0.2859325408935547,-0.22476708889007568,0.16895049810409546
1773230426906113000,10.524113037109375,0.1752300262451172,-0.17948698997497559,0.041061773896217346
1773230426922103600,10.540103515625,0.13134384155273438,-0.2576357126235962,-0.07001893222332001
1773230426938126600,10.556126708984374,-0.19649696350097656,-0.39493775367736816,-0.0014170408248901367
1773230426954118000,10.572117919921874,-0.2470102310180664,-0.3863368034362793,-0.00031395256519317627
1773230426970107400,10.588107421875,-0.27215003967285156,-0.41169118881225586,0.025747299194335938
1773230426986098000,10.604097900390625,-0.6800746917724609,-0.7783526182174683,0.14584144949913025
1773230427002121000,10.620120849609375,-1.055154800415039,-1.055804967880249,0.23895657062530518
1773230427018113000,10.636113037109375,-0.877598762512207,-0.818289041519165,0.00098457932472229
1773230427034103000,10.65210302734375,-0.3912534713745117,-0.3617701530456543,-0.28036558628082275
1773230427050095400,10.668095458984375,-0.5148439407348633,-0.4202204942703247,-0.13113106787204742
1773230427066118000,10.684117919921874,-0.5044212341308594,-0.49025046825408936,-0.10037241876125336
1773230427082108000,10.70010791015625,0.034163475036621094,-0.18400394916534424,-0.001327604055404663
1773230427098099500,10.716099365234374,0.47998619079589844,0.03362464904785156,-0.04472772777080536
1773230427114120400,10.732120361328125,0.2822246551513672,0.15102779865264893,0.02385324239730835
1773230427130112300,10.7481123046875,-0.11149978637695312,0.18067145347595215,-0.0758601576089859
1773230427146103000,10.76410302734375,-0.18116283416748047,0.3478916883468628,0.037765517830848694
1773230427162125300,10.780125244140624,-0.20318984985351562,0.5713229179382324,-0.08491264283657074
1773230427178115300,10.796115234375,-0.042822837829589844,0.6461039781570435,-0.038480669260025024
1773230427194105300,10.812105224609375,0.29825401306152344,0.5812231302261353,0.07626095414161682
1773230427210099200,10.82809912109375,0.5134830474853516,0.5622625350952148,0.1483110785484314
1773230427226121500,10.84412158203125,0.23260784149169922,0.5206613540649414,-0.05328726768493652
1773230427242111000,10.860111083984375,-0.19852447509765625,0.37812066078186035,-0.14822567999362946
1773230427258102500,10.8761025390625,0.012488365173339844,0.5364787578582764,-0.12969441711902618
1773230427274125300,10.892125244140624,0.5738010406494141,0.554847240447998,-0.23564912378787994
1773230427290116400,10.908116455078124,0.5197820663452148,0.16444754600524902,0.023889094591140747
1773230427306105900,10.92410595703125,0.37079906463623047,0.05128908157348633,0.16061417758464813
1773230427322095900,10.940095947265625,0.6798868179321289,0.15369224548339844,0.13182297348976135
1773230427338117000,10.9561171875,0.9556732177734375,0.1143183708190918,-0.04129199683666229
1773230427354110200,10.972110107421875,0.5166263580322266,-0.0549471378326416,-0.0849856287240982
1773230427370101800,10.988101806640625,0.20609283447265625,-0.17807698249816895,0.10684101283550262
1773230427386124000,11.0041240234375,0.2704448699951172,-0.1167757511138916,0.1272769570350647
1773230427402114000,11.020114013671876,0.29087162017822266,-0.26243698596954346,0.17896167933940887
1773230427418106400,11.0361064453125,0.20789432525634766,-0.34431326389312744,0.07280910015106201
1773230427434097700,11.05209765625,0.004364967346191406,-0.48544347286224365,-0.007491886615753174
1773230427450119200,11.068119140625,-0.10706901550292969,-0.5466920137405396,0.04383353888988495
1773230427466110500,11.0841103515625,-0.31978797912597656,-0.5703659057617188,-0.014655277132987976
1773230427482099200,11.10009912109375,-0.6684083938598633,-0.5311547517776489,-0.09032171964645386
1773230427498135000,11.116135009765625,-0.9829473495483398,-0.4849945306777954,-0.1748065948486328
1773230427514127400,11.13212744140625,-0.687687873840332,-0.40199196338653564,-0.14168506860733032
1773230427530117000,11.1481171875,-0.2609424591064453,-0.353626012802124,-0.056590497493743896
1773230427546109400,11.164109375,-0.06536674499511719,-0.3646705150604248,0.07048030197620392
1773230427562129700,11.180129638671875,-0.32039546966552734,-0.20503675937652588,0.046059414744377136
1773230427578119700,11.19611962890625,-0.5189876556396484,0.09850358963012695,0.14501172304153442
1773230427594112800,11.21211279296875,-0.5497560501098633,0.16859793663024902,0.1807820349931717
1773230427610134500,11.228134521484375,-0.4298076629638672,0.21552276611328125,0.5010899305343628
1773230427626125000,11.244125,-0.18972110748291016,0.30355823040008545,0.3959205150604248
1773230427642115800,11.26011572265625,0.19500446319580078,0.5324759483337402,0.37735509872436523
1773230427658138000,11.27613818359375,0.5622501373291016,0.6260190010070801,0.10418887436389923
1773230427674130200,11.292130126953126,0.6262359619140625,0.6535382270812988,0.30564233660697937
1773230427690118400,11.308118408203125,0.56396484375,0.5422985553741455,0.3178942799568176
1773230427706110700,11.32411083984375,0.3014049530029297,0.46129703521728516,0.519600510597229
1773230427722134800,11.340134765625,0.0941171646118164,0.3726351261138916,0.27742698788642883
1773230427738125000,11.356125,-0.21160602569580078,0.26105284690856934,0.1890542209148407
1773230427754114000,11.372114013671874,-0.32432079315185547,0.14890193939208984,-0.023843958973884583
1773230427770107100,11.388107177734375,-0.24938011169433594,0.1298656463623047,-0.033451929688453674
1773230427786128400,11.40412841796875,-0.2674417495727539,-0.10281014442443848,-0.10197180509567261
1773230427802119200,11.420119140625,0.008396148681640625,-0.19805598258972168,0.09994867444038391
1773230427818112300,11.4361123046875,0.6973237991333008,0.028106212615966797,0.0571865513920784
1773230427834133800,11.4521337890625,0.6894006729125977,-0.1981518268585205,0.04037449508905411
1773230427850123500,11.46812353515625,0.04665374755859375,-0.37146079540252686,0.14339396357536316
1773230427866115600,11.484115478515625,-0.3691883087158203,-0.2504904270172119,0.08734364062547684
1773230427882136800,11.50013671875,-0.33307838439941406,-0.2559936046600342,0.04900500178337097
1773230427898128600,11.516128662109375,-0.4849672317504883,-0.4763607978820801,0.13809509575366974
1773230427914119700,11.53211962890625,-0.15546512603759766,-0.2585223913192749,-0.055067673325538635
1773230427930111500,11.548111572265626,0.3524589538574219,-0.26521599292755127,0.056854113936424255
1773230427946132700,11.5641328125,0.36286067962646484,-0.26416218280792236,0.18501630425453186
1773230427962122800,11.580122802734374,-0.06589412689208984,-0.2863370180130005,0.06105966120958328
1773230427978114600,11.596114501953124,-0.10951709747314453,-0.18501543998718262,0.23706787824630737
1773230427994135000,11.612135009765625,0.23500728607177734,0.19542336463928223,0.06713968515396118
1773230428010128100,11.628128173828125,0.08385753631591797,0.2447957992553711,-0.05189623683691025
1773230428026119000,11.644118896484375,-0.4584779739379883,0.07188582420349121,-0.07381324470043182
1773230428042110000,11.66010986328125,-0.5114078521728516,0.0465855598449707,0.02625139057636261
1773230428058132500,11.676132568359375,-0.1269512176513672,0.07991480827331543,-0.15692785382270813
1773230428074122200,11.692122314453124,-0.06026172637939453,0.13652801513671875,-0.10541699081659317
1773230428090114300,11.7081142578125,-0.27058982849121094,0.11799955368041992,-0.16958415508270264
1773230428106136600,11.724136474609375,-0.48488616943359375,0.035989999771118164,-0.07023435831069946
1773230428122124300,11.740124267578125,-0.5789623260498047,0.0643305778503418,-0.15484926104545593
1773230428138118100,11.7561181640625,-0.3723297119140625,0.35797953605651855,-0.20759546756744385
1773230428154108200,11.772108154296875,-0.0003185272216796875,0.44975900650024414,-0.18994924426078796
1773230428170130200,11.788130126953124,0.04990196228027344,0.2787156105041504,0.006721675395965576
1773230428186122500,11.80412255859375,-0.1843709945678711,-0.06877875328063965,0.3498353660106659
1773230428202113500,11.820113525390624,-0.2696857452392578,-0.18334341049194336,0.14683116972446442
1773230428218135000,11.836135009765625,-0.31424903869628906,0.22870254516601562,-0.10265274345874786
1773230428234125600,11.85212548828125,-0.4338541030883789,0.4475741386413574,-0.36142969131469727
1773230428250117600,11.86811767578125,-0.42029380798339844,0.18656182289123535,-0.124993696808815
1773230428266109700,11.884109619140625,-0.016744613647460938,-0.34754836559295654,0.22699008882045746
1773230428282130400,11.90013037109375,0.48193836212158203,-0.18167781829833984,0.14524389803409576
1773230428298119200,11.916119140625,0.6540050506591797,0.09552621841430664,-0.09932640194892883
1773230428314112000,11.932112060546874,0.2590160369873047,0.003939151763916016,-0.10225421190261841
1773230428330135800,11.9481357421875,0.08101749420166016,-0.0695643424987793,0.027823030948638916
1773230428346125600,11.96412548828125,0.2283792495727539,-0.15339350700378418,0.08436524868011475
1773230428362117000,11.9801171875,0.26769065856933594,-0.14948678016662598,-0.010044142603874207
1773230428378108200,11.996108154296875,0.4183826446533203,0.019420146942138672,-0.19775381684303284
1773230428394128600,12.012128662109374,0.7000484466552734,-0.00974583625793457,-0.05961330235004425
1773230428410121000,12.028120849609374,0.7292757034301758,-0.1879878044128418,-0.22699962556362152
1773230428426111000,12.044111083984374,0.27201271057128906,-0.39847874641418457,-0.16581577062606812
1773230428442134500,12.060134521484375,-0.17629528045654297,-0.37400269508361816,-0.25762420892715454
1773230428458124300,12.076124267578125,-0.3490743637084961,-0.15321803092956543,-0.20735736191272736
1773230428474116600,12.09211669921875,0.09222984313964844,-0.0701899528503418,-0.10923413932323456
1773230428490108200,12.108108154296875,0.30245113372802734,-0.04483628273010254,-0.13902831077575684
1773230428506128400,12.12412841796875,-0.06947803497314453,-0.04088878631591797,0.08020538836717606
1773230428522121000,12.140120849609374,-0.4403095245361328,-0.09001326560974121,0.04471851885318756
1773230428538113000,12.156113037109375,-0.6834239959716797,-0.14529728889465332,0.1588778793811798
1773230428554132500,12.172132568359375,-0.625640869140625,-0.2376922369003296,0.2800249755382538
1773230428570123800,12.188123779296875,0.021915435791015625,0.26385974884033203,0.13907146453857422
1773230428586115800,12.20411572265625,0.243743896484375,0.3826563358306885,0.059863485395908356
1773230428602107600,12.220107666015625,-0.15959548950195312,0.14907526969909668,0.4691370725631714
1773230428618128600,12.236128662109374,-0.5303049087524414,-0.12009072303771973,0.35602569580078125
1773230428634116900,12.252116943359376,-0.838068962097168,-0.26549994945526123,0.43886539340019226
1773230428650111000,12.268111083984374,-0.9880971908569336,-0.04320645332336426,0.020785637199878693
1773230428666132200,12.28413232421875,-1.061849594116211,0.32660508155822754,-0.2136460244655609
1773230428682122800,12.300122802734375,-1.2486305236816406,0.14812827110290527,-0.06444280594587326
1773230428698115300,12.316115234375,-1.0703725814819336,0.10973405838012695,-0.13589981198310852
1773230428714104800,12.332104736328125,-0.14261436462402344,0.3186507225036621,-0.18060672283172607
1773230428730128000,12.3481279296875,1.076643943786621,0.5112719535827637,-0.03534209728240967
1773230428746118400,12.364118408203124,1.670919418334961,0.6457381248474121,-0.13495954871177673
1773230428762109700,12.380109619140624,1.3072624206542969,0.480851411819458,0.10529306530952454
1773230428778131000,12.396130859375,0.6796989440917969,0.2721283435821533,0.2274325042963028
1773230428794120400,12.412120361328125,0.5398674011230469,0.35384368896484375,0.0005928128957748413
1773230428810113000,12.428113037109375,0.40978527069091797,0.22697782516479492,0.0851474180817604
1773230428826136300,12.44413623046875,0.43834877014160156,0.07436275482177734,0.0042766183614730835
1773230428842128000,12.4601279296875,0.5523900985717773,-0.04375624656677246,-0.08988139033317566
1773230428858118400,12.476118408203124,0.5246658325195312,-0.1000068187713623,-0.16379225254058838
1773230428874108400,12.4921083984375,0.3614006042480469,0.09129738807678223,-0.1552165448665619
1773230428890131700,12.508131591796875,0.2714099884033203,-0.12990188598632812,0.021488778293132782
1773230428906121500,12.52412158203125,0.18222713470458984,-0.4140489101409912,0.19631844758987427
1773230428922112300,12.5401123046875,0.02674102783203125,-0.4017469882965088,0.10679839551448822
1773230428938136600,12.556136474609374,-0.044872283935546875,-0.09988975524902344,-0.20901022851467133
1773230428954126800,12.572126953125,-0.1139993667602539,0.08661103248596191,-0.3520819842815399
1773230428970118400,12.588118408203124,-0.0633077621459961,0.06201291084289551,-0.2932527959346771
1773230428986106400,12.6041064453125,-0.0954732894897461,-0.2180417776107788,-0.046940430998802185
1773230429002130000,12.6201298828125,-0.3682670593261719,-0.40286874771118164,0.052837781608104706
1773230429018121700,12.636121826171875,-0.7287750244140625,-0.3737905025482178,0.10061529278755188
1773230429034112500,12.652112548828125,-0.930363655090332,-0.20518219470977783,-0.12256331741809845
1773230429050135600,12.668135498046874,-1.0788145065307617,0.023453950881958008,-0.19667324423789978
1773230429066127000,12.684127197265624,-1.2516517639160156,-0.05005621910095215,-0.01837284117937088
1773230429082117000,12.7001171875,-1.1458473205566406,-0.011489391326904297,0.19092705845832825
1773230429098107000,12.71610693359375,-0.9164323806762695,-0.1051478385925293,0.14257994294166565
1773230429114130200,12.732130126953125,-0.5865211486816406,-0.15532946586608887,0.12991824746131897
1773230429130121700,12.748121826171875,-0.2877521514892578,-0.057245492935180664,-0.19764038920402527
1773230429146111200,12.764111328125,-0.3688163757324219,-0.020610809326171875,-0.047503985464572906
1773230429162134800,12.780134765625,-0.38448524475097656,-0.11881470680236816,0.00548814982175827
1773230429178125000,12.796125,-0.22579383850097656,0.04599189758300781,0.02573007345199585
1773230429194116600,12.81211669921875,0.1714611053466797,0.16205859184265137,-0.14704740047454834
1773230429210108200,12.828108154296874,0.39111995697021484,0.17212843894958496,-0.12775573134422302
1773230429226129200,12.844129150390625,0.4078035354614258,0.14139962196350098,-0.18650886416435242
1773230429242121200,12.860121337890625,0.15282154083251953,-0.03861808776855469,-0.04646923393011093
1773230429258111700,12.87611181640625,-0.20175933837890625,0.04297161102294922,-0.0499320924282074
1773230429274103300,12.892103271484375,-0.5973548889160156,0.029919862747192383,-0.044880032539367676
1773230429290125600,12.90812548828125,-0.7068204879760742,-0.17909812927246094,0.2832035422325134
1773230429306115800,12.92411572265625,-0.8165273666381836,-0.45636773109436035,0.0552782341837883
1773230429322107400,12.940107421875,-0.6610746383666992,-0.5178388357162476,0.05550404638051987
1773230429338128600,12.956128662109375,-0.0793161392211914,-0.2821310758590698,-0.35105153918266296
1773230429354119000,12.972118896484375,0.689361572265625,0.10009050369262695,-0.25922948122024536
1773230429370111700,12.98811181640625,1.2764291763305664,0.23475217819213867,-0.11357526481151581
1773230429386132500,13.004132568359376,1.3701772689819336,0.3807053565979004,0.1294110268354416
1773230429402123000,13.020123046875,0.7341556549072266,0.23076415061950684,0.219613716006279
1773230429418113800,13.03611376953125,-0.21829700469970703,-0.46014463901519775,0.480804443359375
1773230429434106600,13.052106689453124,-0.38583946228027344,-0.37332606315612793,0.4720779061317444
1773230429450128100,13.068128173828125,-0.14082717895507812,0.2757430076599121,-0.09506400674581528
1773230429466118400,13.084118408203125,-1.0390958786010742,0.13660645484924316,-0.22487342357635498
1773230429482109400,13.100109375,-1.3421506881713867,-0.08629775047302246,-0.1999320089817047
1773230429498132000,13.116132080078126,0.25938987731933594,0.29473066329956055,-0.2807377874851227
1773230429514014200,13.13201416015625,2.0929346084594727,0.4348881244659424,0.01998363435268402
1773230429530113500,13.148113525390626,2.7848386764526367,0.5460290908813477,-0.26179343461990356
1773230429546106400,13.1641064453125,2.1617794036865234,0.6562671661376953,-0.07299081981182098
1773230429562128000,13.1801279296875,1.4147253036499023,0.6478652954101562,0.10670637339353561
1773230429578119200,13.196119140625,0.3495206832885742,0.7136437892913818,0.28266313672065735
1773230429594108700,13.212108642578125,-0.9582738876342773,0.005941629409790039,0.02637464553117752
1773230429610132000,13.228132080078124,-1.853950023651123,-0.5974410772323608,0.3191602826118469
1773230429626121700,13.244121826171876,-1.8038673400878906,-0.7351276874542236,0.11304320394992828
1773230429642114000,13.260114013671876,-1.3964776992797852,0.3144826889038086,-0.9788408875465393
1773230429658104800,13.276104736328126,-0.6622171401977539,0.37349987030029297,-1.2646496295928955
1773230429674127600,13.292127685546875,-0.13213825225830078,0.12717270851135254,-0.45843037962913513
1773230429690118400,13.308118408203125,0.5155048370361328,-0.3179062604904175,0.13528664410114288
1773230429706109400,13.324109375,1.015852928161621,-0.26081573963165283,0.29358798265457153
1773230429722131000,13.340130859375,0.6298084259033203,-0.16529178619384766,0.20551976561546326
1773230429738123000,13.356123046875,-0.3883781433105469,-0.10962891578674316,0.007725991308689117
1773230429754113800,13.37211376953125,-1.3151626586914062,-0.21417498588562012,-0.022045940160751343
1773230429770134800,13.388134765625,-1.4558401107788086,-0.3401447534561157,0.12494846433401108
1773230429786125300,13.404125244140625,-1.098933219909668,-0.2978326082229614,0.0069569796323776245
1773230429802117600,13.42011767578125,-0.7052841186523438,-0.4160439968109131,-0.10027922689914703
1773230429818109200,13.436109130859375,-0.29782581329345703,-0.4192812442779541,-0.4312019348144531
1773230429834130200,13.452130126953126,-0.051115989685058594,-0.24867308139801025,-0.6927438378334045
1773230429850120400,13.468120361328126,0.14230918884277344,-0.23797380924224854,-0.46343135833740234
1773230429866113300,13.48411328125,0.2945261001586914,-0.1578361988067627,-0.15723496675491333
1773230429882134000,13.500134033203125,0.4425954818725586,-0.05648016929626465,0.2777811884880066
1773230429898125800,13.516125732421875,0.6411523818969727,0.12435770034790039,0.17438286542892456
1773230429914117000,13.5321171875,0.5813369750976562,0.19530177116394043,0.02874934673309326
1773230429930108200,13.548108154296875,0.20426082611083984,0.16028499603271484,0.16857720911502838
1773230429946128000,13.5641279296875,-0.008087158203125,0.27564477920532227,0.08975669741630554
1773230429962120200,13.5801201171875,-0.09897994995117188,0.2503204345703125,0.12548597157001495
1773230429978110500,13.5961103515625,0.06049156188964844,0.1722111701965332,0.29382508993148804
1773230429994103800,13.612103759765626,0.4148721694946289,0.4664194583892822,0.3590826988220215
1773230430010125600,13.62812548828125,0.8167533874511719,0.6401233673095703,0.10654821991920471
1773230430026116000,13.6441162109375,0.9605197906494141,0.39505529403686523,0.11234723031520844
1773230430042107100,13.660107177734375,0.7981948852539062,0.27283239364624023,0.21314555406570435
1773230430058128000,13.6761279296875,0.8043556213378906,0.4249444007873535,0.17099055647850037
1773230430074121000,13.692120849609376,0.47652626037597656,0.7274990081787109,0.06322561204433441
1773230430090112500,13.708112548828124,-0.13583660125732422,0.33603429794311523,0.13767901062965393
1773230430106131700,13.724131591796874,-0.11039924621582031,-0.05167508125305176,0.2332054227590561
1773230430122123000,13.740123046875,0.5020294189453125,0.18254923820495605,-0.169478178024292
1773230430138115800,13.75611572265625,0.9086618423461914,0.30649304389953613,-0.1826850324869156
1773230430154107100,13.772107177734375,0.22257518768310547,0.13405585289001465,-0.15946245193481445
1773230430170128400,13.78812841796875,-0.15263843536376953,0.00864863395690918,0.15078842639923096
1773230430186119000,13.804118896484376,0.03719806671142578,-0.18823623657226562,0.1930621862411499
1773230430202111500,13.820111572265626,-0.2725505828857422,-0.4387955665588379,0.2370568811893463
1773230430218133500,13.836133544921875,-0.6187505722045898,-0.36645591259002686,-0.05297544598579407
1773230430234122800,13.852122802734375,-0.7168722152709961,-0.02460622787475586,-0.0806187242269516
1773230430250115000,13.868114990234375,-0.7818193435668945,-0.20310592651367188,-0.0009780526161193848
1773230430266105900,13.88410595703125,-0.8630380630493164,-0.3620263338088989,0.20675525069236755
1773230430282127000,13.900127197265626,-0.9565181732177734,-0.49331092834472656,0.2888006567955017
1773230430298118100,13.9161181640625,-0.5554285049438477,-0.42842555046081543,0.24413923919200897
1773230430314110700,13.93211083984375,-0.06171894073486328,-0.12569856643676758,0.03907513990998268
1773230430330132000,13.948132080078125,0.2257852554321289,0.0010330677032470703,-0.12790723145008087
1773230430346124300,13.964124267578125,0.5133171081542969,0.14205479621887207,0.183628648519516
1773230430362113000,13.980113037109374,0.6504058837890625,0.15700078010559082,0.34039026498794556
1773230430378104800,13.996104736328125,0.7530107498168945,0.18985772132873535,0.5380405187606812
1773230430394126600,14.012126708984376,0.3312511444091797,0.11899304389953613,0.25029414892196655
1773230430410117000,14.0281171875,-0.2525968551635742,-0.09904694557189941,0.21440380811691284
1773230430426110000,14.04410986328125,-0.3230581283569336,0.031127452850341797,-0.0689542219042778
1773230430442132200,14.06013232421875,-0.10512638092041016,0.3969714641571045,-0.10006053745746613
1773230430458120400,14.076120361328124,-0.018980979919433594,0.2583184242248535,-0.21705445647239685
1773230430474113800,14.09211376953125,-0.11320114135742188,0.1230309009552002,-0.05121957138180733
1773230430490105000,14.10810498046875,0.22710418701171875,0.033712148666381836,-0.1856118142604828
1773230430506125800,14.124125732421875,0.4503974914550781,-0.20291423797607422,-0.0008494928479194641
1773230430522118000,14.140117919921876,0.251617431640625,-0.29127800464630127,-0.1834019422531128
1773230430538108700,14.156108642578126,-0.0655670166015625,-0.23681306838989258,-0.2128925919532776
1773230430554128600,14.172128662109374,-0.24410724639892578,0.055756330490112305,-0.19040340185165405
1773230430570122000,14.1881220703125,0.009351730346679688,0.27278590202331543,-0.3217380940914154
1773230430586111000,14.204111083984374,0.5602626800537109,0.06435537338256836,0.10715389251708984
1773230430602133800,14.2201337890625,0.8959732055664062,-0.05422520637512207,-0.024595949798822403
1773230430618125800,14.236125732421876,0.655604362487793,-0.031481266021728516,-0.026186034083366394
1773230430634116400,14.252116455078125,-0.1763477325439453,-0.018367767333984375,-0.19777393341064453
1773230430650108400,14.2681083984375,-0.5789709091186523,0.05410408973693848,0.05925499647855759
1773230430666130200,14.284130126953125,-0.4183349609375,0.17260432243347168,0.11166257411241531
1773230430682121500,14.30012158203125,-0.3891773223876953,-0.003913164138793945,0.08204802870750427
1773230430698110700,14.31611083984375,-0.4292411804199219,-0.2505760192871094,-0.03081420063972473
1773230430714104000,14.33210400390625,-0.3030109405517578,0.015655040740966797,-0.14358016848564148
1773230430730125000,14.348125,-0.028844833374023438,0.161787748336792,-0.11838719248771667
1773230430746115000,14.364114990234375,-0.2872323989868164,0.05069684982299805,0.03521652892231941
1773230430762107100,14.380107177734375,-0.546875,-0.06034708023071289,0.11125409603118896
1773230430778128400,14.39612841796875,-0.28802013397216797,-0.035111427307128906,-0.04535791277885437
1773230430794121200,14.412121337890625,0.3616209030151367,0.5009357929229736,-0.17073380947113037
1773230430810112000,14.428112060546875,0.8804292678833008,0.41333937644958496,-0.3211959898471832
1773230430826133200,14.44413330078125,0.8566875457763672,0.204268217086792,-0.028902307152748108
1773230430842124800,14.460124755859376,0.6272754669189453,0.1761171817779541,0.01354052871465683
1773230430858116000,14.4761162109375,0.49676036834716797,0.15704011917114258,0.012819476425647736
1773230430874107600,14.492107666015626,0.07028865814208984,0.03567934036254883,-0.18781304359436035
1773230430890129000,14.50812890625,-0.3024749755859375,-0.21451067924499512,-0.07548976689577103
1773230430906120400,14.524120361328125,-0.04759979248046875,-0.3336979150772095,-0.07935311645269394
1773230430922111200,14.540111328125,0.30095386505126953,-0.1088569164276123,-0.33894622325897217
1773230430938133000,14.556133056640626,-0.19448375701904297,-0.1739354133605957,-0.3108054995536804
1773230430954122500,14.57212255859375,-0.3812551498413086,-0.25475263595581055,0.03717417269945145
1773230430970115600,14.588115478515626,0.5239343643188477,0.07867026329040527,0.08827683329582214
1773230430986105900,14.60410595703125,0.9213314056396484,-0.1548609733581543,0.11253044009208679
1773230431002128000,14.6201279296875,0.42657470703125,-0.10338187217712402,0.22437775135040283
1773230431018119000,14.636118896484374,-0.4568958282470703,-0.020485877990722656,0.3114476501941681
1773230431034111000,14.652111083984375,-0.6103858947753906,-0.022541046142578125,0.2261079102754593
1773230431050132700,14.6681328125,-0.6636943817138672,0.024861574172973633,0.29107221961021423
1773230431066122200,14.684122314453125,-0.6174688339233398,-0.05037832260131836,0.25663530826568604
1773230431082115000,14.700114990234376,-0.5926847457885742,-0.10210013389587402,0.2680679261684418
1773230431098105000,14.71610498046875,-0.3114032745361328,-0.4884493350982666,0.28161007165908813
1773230431114125800,14.732125732421874,-1.0177030563354492,0.03248763084411621,-0.25452685356140137
1773230431130118700,14.74811865234375,-0.8983039855957031,0.2822589874267578,-0.37565916776657104
1773230431146110000,14.76410986328125,-0.13274669647216797,0.06705665588378906,0.15880517661571503
1773230431162131500,14.78013134765625,0.11344146728515625,0.06224632263183594,0.12654545903205872
1773230431178123000,14.796123046875,0.2554597854614258,0.05011701583862305,0.22856129705905914
1773230431194111700,14.81211181640625,0.2369403839111328,0.00675511360168457,0.1502665877342224
1773230431210104800,14.828104736328125,-0.04636192321777344,-0.03848671913146973,0.2495139241218567
1773230431226127000,14.844127197265625,-0.7651453018188477,-0.22382855415344238,0.252888560295105
1773230431242117600,14.86011767578125,-0.9987497329711914,-0.3910471200942993,0.04224821925163269
1773230431258107100,14.876107177734376,-0.2120819091796875,-0.058457374572753906,-0.11775033175945282
1773230431274100700,14.892100830078125,0.26452159881591797,0.21464824676513672,-0.4077739119529724
1773230431290121200,14.908121337890625,0.6769895553588867,0.16525888442993164,-0.24278949201107025
1773230431306112800,14.92411279296875,1.334761619567871,0.18881654739379883,0.01468815840780735
1773230431322104800,14.940104736328125,1.6864051818847656,0.13374066352844238,0.12326949834823608
1773230431338123800,14.956123779296876,0.7888107299804688,-0.15779376029968262,0.39747968316078186
1773230431354116900,14.972116943359374,-0.8364334106445312,-0.4631044864654541,0.03593384847044945
1773230431370109700,14.988109619140625,-1.16180419921875,-0.4483487606048584,0.14793789386749268
1773230431386130700,15.004130615234375,0.03599357604980469,0.009102106094360352,-0.2226317822933197
1773230431402121700,15.020121826171875,0.7995643615722656,0.32206153869628906,-0.13261491060256958
1773230431418112500,15.036112548828125,0.35100746154785156,0.35445141792297363,-0.19669494032859802
1773230431434104000,15.05210400390625,-0.23333358764648438,0.11319732666015625,0.16027426719665527
1773230431450125600,15.06812548828125,-0.43922901153564453,-0.5022056102752686,0.5482837557792664
1773230431466116600,15.08411669921875,-0.6542816162109375,-0.6309934854507446,0.4484146237373352
1773230431482107100,15.100107177734374,-0.2608652114868164,0.15574884414672852,-0.25803127884864807
1773230431498129400,15.11612939453125,-0.6704826354980469,0.5986995697021484,-0.48448359966278076
1773230431514121000,15.132120849609375,-1.4316215515136719,0.05103015899658203,-0.16463607549667358
1773230431530111000,15.148111083984375,-1.2236700057983398,-0.191680908203125,-0.25527235865592957
1773230431546103800,15.164103759765625,-0.03873729705810547,0.14997529983520508,-0.1592075377702713
1773230431562124800,15.180124755859374,-0.09150409698486328,0.04027247428894043,-0.1930307149887085
1773230431578115800,15.19611572265625,-1.0021076202392578,-0.3384772539138794,-0.4579692780971527
1773230431594105900,15.21210595703125,-1.6855669021606445,-0.7021714448928833,-0.4081934094429016
1773230431610129000,15.22812890625,-1.781759262084961,-0.3615936040878296,-1.0603896379470825
1773230431626120400,15.244120361328125,-0.4492664337158203,-0.08648443222045898,-0.9117787480354309
1773230431642111200,15.260111328125,0.26134395599365234,0.39869070053100586,-0.7096476554870605
1773230431658101500,15.2761015625,2.2920970916748047,0.9912028312683105,-0.7251704931259155
1773230431674123800,15.292123779296874,2.8309507369995117,0.3289780616760254,0.18819087743759155
1773230431690114800,15.30811474609375,2.506053924560547,-0.3037818670272827,0.5200439691543579
1773230431706107000,15.32410693359375,1.801107406616211,-0.10833001136779785,0.700616180896759
1773230431722128600,15.340128662109375,0.8337192535400391,0.668881893157959,0.42096421122550964
1773230431738120200,15.3561201171875,-0.642460823059082,0.3796207904815674,0.09484971314668655
1773230431754110000,15.37210986328125,-1.2471399307250977,0.018735647201538086,0.39396896958351135
1773230431770130400,15.38813037109375,0.01937389373779297,0.05722928047180176,0.5738672018051147
1773230431786123300,15.404123291015624,0.792140007019043,-0.2206660509109497,0.44409605860710144
1773230431802114300,15.4201142578125,0.8705110549926758,-0.5901401042938232,-0.11761278659105301
1773230431818105000,15.43610498046875,0.907780647277832,0.04934835433959961,-0.5047897696495056
1773230431834127600,15.452127685546875,0.6425085067749023,0.476271390914917,-0.19625526666641235
1773230431850119000,15.468118896484375,0.11542892456054688,0.0026242733001708984,0.14359870553016663
1773230431866108200,15.484108154296875,-0.42144775390625,-0.27755725383758545,0.06989892572164536
1773230431882099500,15.500099365234375,-0.9601173400878906,-0.5318063497543335,0.32739996910095215
1773230431898122200,15.516122314453124,-0.8973703384399414,-0.18347668647766113,-0.039696235209703445
1773230431914114300,15.5321142578125,-0.7298984527587891,0.15108251571655273,-0.35686853528022766
1773230431930105600,15.548105712890624,-0.9742927551269531,-0.27761077880859375,-0.43421679735183716
1773230431946126000,15.5641259765625,-0.9082050323486328,-0.39164769649505615,-0.3390362560749054
1773230431962116400,15.580116455078125,-0.432525634765625,0.006755828857421875,0.13625271618366241
1773230431978109400,15.596109375,0.2989826202392578,0.38596606254577637,0.1776001751422882
1773230431994101200,15.612101318359375,0.8010587692260742,0.34926557540893555,-0.17251425981521606
1773230432010122000,15.6281220703125,0.5323896408081055,0.06902503967285156,0.044250719249248505
1773230432026114000,15.644114013671874,-0.12468910217285156,0.024867534637451172,0.2414284646511078
1773230432042102300,15.660102294921876,-0.5563249588012695,-0.05447530746459961,0.3884834349155426
1773230432058124800,15.676124755859375,-0.6103601455688477,-0.5498303174972534,0.3150114417076111
1773230432074118100,15.6921181640625,-0.38825511932373047,-0.33672893047332764,0.15339337289333344
1773230432090109700,15.708109619140625,0.16638946533203125,0.4257540702819824,-0.6969892978668213
1773230432106130200,15.724130126953124,0.2322711944580078,0.39255452156066895,-0.6181548237800598
1773230432122121700,15.740121826171874,0.33482837677001953,0.1344616413116455,-0.03200918436050415
1773230432138113300,15.75611328125,0.9749011993408203,0.14267277717590332,0.21051885187625885
1773230432154104600,15.7721044921875,1.310445785522461,0.0008871555328369141,0.4624551832675934
1773230432170125800,15.788125732421875,1.024606704711914,0.01816868782043457,0.07561006397008896
1773230432186117400,15.804117431640625,0.4223814010620117,0.3855433464050293,0.1784767210483551
1773230432202109000,15.82010888671875,0.03283882141113281,0.4172358512878418,0.15254278481006622
1773230432218131000,15.836130859375,-0.08045196533203125,0.3813023567199707,0.2440340220928192
1773230432234121500,15.85212158203125,-0.11589717864990234,0.16617417335510254,0.14760303497314453
1773230432250113300,15.86811328125,-0.5112209320068359,-0.3783367872238159,0.4103488624095917
1773230432266103000,15.88410302734375,-0.4328193664550781,-0.48093175888061523,0.18204288184642792
1773230432282125300,15.900125244140625,-0.23152828216552734,-0.0843961238861084,-0.2748471200466156
1773230432298114600,15.916114501953125,-0.6371870040893555,-0.020923376083374023,-0.6239573955535889
1773230432314108200,15.932108154296875,-1.0192155838012695,-0.188002347946167,-0.6659100651741028
1773230432330129000,15.94812890625,-0.7745189666748047,-0.1838850975036621,0.05049651861190796
1773230432346119700,15.96411962890625,0.551177978515625,0.14679694175720215,-0.023190651088953018
1773230432362110700,15.98011083984375,1.1785526275634766,0.0022764205932617188,-0.20973928272724152
1773230432378102000,15.99610205078125,0.40749168395996094,-0.28215205669403076,-0.4467930793762207
1773230432394123500,16.01212353515625,-0.4739542007446289,-0.24329078197479248,-0.008204679936170578
1773230432410116400,16.028116455078123,-0.3624238967895508,0.23643064498901367,0.03913670405745506
1773230432426107100,16.044107177734375,-0.3952512741088867,0.02014780044555664,-0.017216287553310394
1773230432442128400,16.06012841796875,-0.6149606704711914,-0.46372437477111816,0.00035327114164829254
1773230432458120700,16.07612060546875,-0.2997016906738281,0.03768038749694824,-0.13635365664958954
1773230432474111700,16.09211181640625,0.04050731658935547,0.4256739616394043,-0.3635476529598236
1773230432490102300,16.108102294921874,-0.12143993377685547,-0.22573959827423096,-0.17131489515304565
1773230432506124500,16.12412451171875,-0.12323474884033203,-0.7179309129714966,0.36864781379699707
1773230432522115600,16.140115478515625,0.4107542037963867,0.04905581474304199,0.15978869795799255
1773230432538157300,16.1561572265625,0.23350143432617188,0.5114312171936035,0.0818023756146431
1773230432554179600,16.1721796875,-0.6749467849731445,-0.20337986946105957,0.10851652920246124
1773230432570170000,16.188170166015624,-0.5442380905151367,-0.29704368114471436,0.2579825222492218
1773230432586161000,16.204160888671876,0.5572652816772461,0.3347177505493164,0.17807528376579285
1773230432602183400,16.220183349609375,0.9697580337524414,0.4639554023742676,0.011119470000267029
1773230432618174700,16.2361748046875,0.607325553894043,0.18105459213256836,0.4036225974559784
1773230432634165500,16.25216552734375,0.03719043731689453,-0.00812387466430664,0.39783167839050293
1773230432650157000,16.268156982421875,-0.10624313354492188,0.1497647762298584,0.3160257041454315
1773230432666177500,16.284177490234374,-0.009245872497558594,0.2566690444946289,-0.22103604674339294
1773230432682169600,16.300169677734374,-0.007176399230957031,0.2490079402923584,-0.1419593244791031
1773230432698160000,16.31616015625,0.02502918243408203,0.04723548889160156,0.19430658221244812
1773230432714184000,16.332183837890625,0.4975719451904297,0.08030056953430176,-0.18981125950813293
1773230432730174000,16.348174072265625,0.4759702682495117,-0.0035610198974609375,-0.20963799953460693
1773230432746165800,16.364165771484377,-0.18610858917236328,-0.24557864665985107,-0.17111855745315552
1773230432762156500,16.380156494140625,-0.019967079162597656,0.02267313003540039,-0.044760022312402725
1773230432778177500,16.396177490234376,0.864715576171875,0.17344331741333008,-0.23209023475646973
1773230432794169900,16.412169921875,1.1379756927490234,-0.042082786560058594,0.020692333579063416
1773230432810160400,16.428160400390624,0.26546382904052734,-0.16589462757110596,0.09196984767913818
1773230432826182400,16.444182373046875,-0.5655431747436523,-0.11137604713439941,0.41013503074645996
1773230432842173700,16.460173583984375,-0.8297939300537109,-0.18319380283355713,-0.004240013659000397
1773230432858164700,16.476164794921875,-1.0182342529296875,-0.6006793975830078,0.07842281460762024
1773230432874153700,16.49215380859375,-1.1885700225830078,-0.5867764949798584,-0.10681268572807312
1773230432890177500,16.508177490234374,-1.3139171600341797,-0.32370543479919434,-0.12645189464092255
1773230432906166000,16.524166015625,-1.451136589050293,-0.3798201084136963,-0.28493428230285645
1773230432922161000,16.540160888671874,-1.251051902770996,-0.5904810428619385,-0.4243783950805664
1773230432938179600,16.5561796875,-0.5785312652587891,-0.3335304260253906,-0.42202821373939514
1773230432954173000,16.5721728515625,-0.10111522674560547,0.0060214996337890625,-0.12099146097898483
1773230432970164500,16.58816455078125,-0.20400142669677734,-0.3754509687423706,0.13090534508228302
1773230432986155500,16.604155517578125,-0.3117637634277344,-0.7881214618682861,0.027653872966766357
1773230433002176000,16.620176025390624,-0.2323780059814453,-0.19452393054962158,-0.014777623116970062
1773230433018169000,16.636169189453124,-0.16008853912353516,0.47344040870666504,-0.0653325617313385
1773230433034160000,16.65216015625,-0.23430252075195312,0.4495546817779541,0.10523078590631485
1773230433050182100,16.66818212890625,-0.06493663787841797,0.03574967384338379,0.33633387088775635
1773230433066173200,16.684173095703127,0.3102579116821289,-0.07393932342529297,0.23498064279556274
1773230433082164200,16.700164306640627,0.5515413284301758,0.026389360427856445,0.03431077301502228
1773230433098154500,16.716154541015626,0.8494787216186523,0.3776214122772217,-0.21213066577911377
1773230433114177300,16.73217724609375,0.893096923828125,0.6768442392349243,-0.19999808073043823
1773230433130168300,16.748168212890626,0.6313858032226562,0.35277605056762695,0.07197525352239609
1773230433146158000,16.764157958984374,0.12009334564208984,-0.2006770372390747,-0.12561190128326416
1773230433162180400,16.780180419921876,-0.042273521423339844,-0.5352315902709961,0.23829419910907745
1773230433178172200,16.796172119140625,0.6427392959594727,0.2800215482711792,-0.1295681893825531
1773230433194163700,16.812163818359377,0.9002494812011719,0.4936251640319824,-0.5180498957633972
1773230433210154500,16.828154541015625,0.14575481414794922,-0.10771501064300537,-0.4587882459163666
1773230433226177000,16.844177001953124,-0.4106721878051758,-0.25525450706481934,-0.022798366844654083
1773230433242167000,16.8601669921875,0.36441612243652344,0.3441656827926636,0.2759666442871094
1773230433258159600,16.87615966796875,1.3352174758911133,0.7204775810241699,0.03215688467025757
1773230433274178600,16.892178466796874,0.8787479400634766,0.006746768951416016,0.023219630122184753
1773230433290171600,16.908171630859375,-0.4224519729614258,-0.3985072374343872,-0.21688462793827057
1773230433306163700,16.924163818359375,-1.4571161270141602,0.05085921287536621,-0.07575904577970505
1773230433322154800,16.94015478515625,-1.6081347465515137,0.05068802833557129,-0.20984701812267303
1773230433338175000,16.956175048828126,-1.514836311340332,-0.26724517345428467,-0.03095843642950058
1773230433354166300,16.972166259765626,-1.2027826309204102,-0.22602331638336182,-0.2848936915397644
1773230433370158800,16.988158935546874,-0.793116569519043,-0.14837217330932617,-0.3957884907722473
1773230433386181000,17.00418115234375,-0.6541900634765625,-0.30423665046691895,-0.4495866894721985
1773230433402171000,17.0201708984375,0.077972412109375,-0.09928488731384277,-0.0824509784579277
1773230433418163000,17.036162841796877,0.9804019927978516,0.2231912612915039,0.058291517198085785
1773230433434152000,17.05215185546875,1.3959159851074219,0.2776458263397217,0.3306838572025299
1773230433450175700,17.06817578125,1.0729379653930664,0.1325054168701172,0.40983158349990845
1773230433466166500,17.08416650390625,0.4129371643066406,-0.0384976863861084,0.5362131595611572
1773230433482158000,17.100157958984376,0.040368080139160156,-0.18598616123199463,0.7077054977416992
1773230433498180400,17.116180419921875,0.1381521224975586,-0.12607860565185547,0.40449410676956177
1773230433514169900,17.132169921875,-0.021636009216308594,0.00786280632019043,0.16278541088104248
1773230433530162700,17.14816259765625,-0.043109893798828125,-0.02324390411376953,0.2950904965400696
1773230433546152200,17.164152099609375,0.4569864273071289,0.09264469146728516,0.3672716021537781
1773230433562175000,17.180175048828126,1.1517162322998047,0.3028388023376465,0.29608818888664246
1773230433578166500,17.19616650390625,1.6726226806640625,0.44394636154174805,0.2141886055469513
1773230433594157600,17.212157470703126,1.040024757385254,0.157301664352417,0.6016140580177307
1773230433610179600,17.2281796875,0.1825542449951172,-0.04598426818847656,0.7120695114135742
1773230433626169600,17.244169677734376,-0.7496538162231445,-0.32274508476257324,0.4163978695869446
1773230433642161000,17.260160888671876,-1.0934534072875977,-0.3723444938659668,0.02476637065410614
1773230433658183700,17.27618359375,-0.5548534393310547,0.3687577247619629,-0.45833393931388855
1773230433674175700,17.29217578125,0.20926856994628906,0.5558969974517822,-0.30315667390823364
1773230433690165500,17.30816552734375,0.34257984161376953,0.0901186466217041,-0.05022968351840973
1773230433706156000,17.324156005859376,-0.3091602325439453,-0.10590839385986328,0.36878877878189087
1773230433722178300,17.34017822265625,-0.8347606658935547,-0.3984675407409668,0.0881141871213913
1773230433738171100,17.356171142578123,-0.9474830627441406,-0.34439778327941895,0.2750485837459564
1773230433754161700,17.37216162109375,-0.6357173919677734,0.4433760643005371,-0.32499194145202637
1773230433770152400,17.38815234375,-1.0746698379516602,0.16838908195495605,-0.13651330769062042
1773230433786172700,17.404172607421874,-1.6719012260437012,-0.629885196685791,-0.16952618956565857
1773230433802164500,17.42016455078125,-0.6244773864746094,-0.4433547258377075,-0.18855077028274536
1773230433818156800,17.43615673828125,1.6921415328979492,0.5755202770233154,-0.6255959868431091
1773230433834176500,17.452176513671876,2.5842771530151367,0.8107597827911377,-0.8841170072555542
1773230433850170600,17.468170654296873,0.9613924026489258,-0.02482438087463379,-0.832379937171936
1773230433866161700,17.48416162109375,-0.10776233673095703,-0.8231484889984131,-0.13950037956237793
1773230433882183000,17.500182861328124,0.22350502014160156,-0.6511577367782593,-0.6447283029556274
1773230433898172700,17.516172607421876,0.5301046371459961,0.2884964942932129,-0.8350383043289185
1773230433914163000,17.532162841796875,-0.32134532928466797,0.3453960418701172,-1.093827724456787
1773230433930155800,17.54815576171875,-0.4439115524291992,-0.3134925365447998,-0.42490333318710327
1773230433946177000,17.564177001953126,0.0623016357421875,-0.7418196201324463,-0.329958438873291
1773230433962170000,17.580170166015623,0.6004428863525391,-0.500324010848999,-0.07881590723991394
1773230433978161700,17.59616162109375,0.43580150604248047,-0.5626912117004395,-0.10756949335336685
1773230433994181400,17.612181396484374,-0.01569843292236328,-0.7293137311935425,0.059531524777412415
1773230434010173700,17.628173583984374,-0.26483154296875,-0.8962686061859131,-0.009737297892570496
1773230434026165000,17.6441650390625,-0.3501701354980469,-0.7500382661819458,-0.010707229375839233
1773230434042155300,17.6601552734375,-0.1965656280517578,-0.3359553813934326,-0.08294498175382614
1773230434058178600,17.676178466796873,-0.13669681549072266,-0.19562292098999023,0.09303580224514008
1773230434074168300,17.692168212890625,-0.13753128051757812,-0.47084617614746094,0.1381770670413971
1773230434090160600,17.70816064453125,-0.18213748931884766,-0.7538270950317383,0.38092654943466187
1773230434106181600,17.724181640625,-0.0829763412475586,-0.33243823051452637,0.16791066527366638
1773230434122173700,17.740173583984376,-0.3278026580810547,-0.03336954116821289,0.027826234698295593
1773230434138165000,17.7561650390625,-0.6738309860229492,-0.17204642295837402,0.1461891531944275
1773230434154155800,17.77215576171875,-0.8539609909057617,-0.23600900173187256,0.07153032720088959
1773230434170177000,17.788177001953127,-0.5876579284667969,-0.3191087245941162,0.32921722531318665
1773230434186168800,17.8041689453125,0.13367843627929688,-0.23356389999389648,0.48765936493873596
1773230434202160400,17.820160400390623,0.8688907623291016,0.02483236789703369,0.20493759214878082
1773230434218182700,17.8361826171875,1.0629405975341797,0.12845289707183838,0.13564027845859528
1773230434234173400,17.85217333984375,0.6319284439086914,-0.015147209167480469,0.21684575080871582
1773230434250164200,17.868164306640626,0.1251697540283203,-0.1389753818511963,0.2086143046617508
1773230434266154500,17.884154541015626,-0.24574947357177734,-0.35193443298339844,0.39341220259666443
1773230434282177300,17.90017724609375,-0.05823516845703125,-0.49961674213409424,0.3264591097831726
1773230434298166800,17.916166748046876,0.216827392578125,-0.488861083984375,0.2578851580619812
1773230434314157800,17.93215771484375,0.0975027084350586,-0.189919114112854,-0.23933811485767365
1773230434330180400,17.948180419921876,-0.3890867233276367,0.058429598808288574,-0.39661118388175964
1773230434346172700,17.964172607421876,-0.32566070556640625,-0.044611454010009766,-0.030470862984657288
1773230434362162400,17.980162353515624,-0.2841472625732422,-0.4133315086364746,0.2271464765071869
1773230434378153500,17.996153564453124,-0.39135265350341797,-0.9505151510238647,0.4074143171310425
1773230434394176500,18.012176513671875,0.019994735717773438,-0.4998887777328491,0.4112280011177063
1773230434410166500,18.02816650390625,0.10700225830078125,0.24992525577545166,-0.5285952091217041
1773230434426160400,18.044160400390624,-0.7536497116088867,0.28710973262786865,-0.5478122234344482
1773230434442179600,18.0601796875,-0.3904590606689453,0.11536252498626709,-0.1832394301891327
1773230434458172400,18.07617236328125,0.7006149291992188,-0.26392877101898193,0.32773229479789734
1773230434474162400,18.092162353515626,0.9749488830566406,-0.4449669122695923,0.4609542787075043
1773230434490154200,18.108154296875,0.1445455551147461,0.027833104133605957,-0.19790968298912048
1773230434506176300,18.12417626953125,-0.9430170059204102,0.3672192096710205,-0.6917595267295837
1773230434522166500,18.14016650390625,-1.4337778091430664,-0.053964972496032715,-0.3447413146495819
1773230434538158600,18.15615869140625,-0.9743785858154297,-0.31823813915252686,-0.18448753654956818
1773230434554180900,18.172180908203124,-0.30841541290283203,-0.2994121313095093,0.022097885608673096
1773230434570171100,18.188171142578124,0.543910026550293,-0.16614139080047607,0.014965757727622986
1773230434586161700,18.20416162109375,0.7504558563232422,0.13160216808319092,-0.29225507378578186
1773230434602184400,18.220184326171875,0.505615234375,0.1806849241256714,-0.39174386858940125
1773230434618174500,18.236174560546875,0.4549074172973633,-0.02400994300842285,-0.009035125374794006
1773230434634166000,18.252166015625,0.6289281845092773,-0.16493523120880127,0.3290005326271057
1773230434650158800,18.268158935546875,0.5190200805664062,-0.17019367218017578,0.21522986888885498
1773230434666178600,18.284178466796874,0.2184123992919922,-0.04435265064239502,0.10525448620319366
1773230434682170400,18.30017041015625,0.1907663345336914,0.3889073133468628,-0.2948834300041199
1773230434698162000,18.316161865234374,-0.3396120071411133,0.2136446237564087,-0.34654590487480164
1773230434714153200,18.3321533203125,-0.5403985977172852,-0.3343578577041626,-0.07539726793766022
1773230434730175200,18.34817529296875,-0.33753013610839844,-0.6599017381668091,0.010320201516151428
1773230434746164200,18.364164306640625,0.17110347747802734,-0.30860280990600586,-0.002005934715270996
1773230434762156800,18.38015673828125,0.16118431091308594,0.1517167091369629,-0.4898519515991211
1773230434778180400,18.396180419921876,-0.5615987777709961,-0.05774247646331787,-0.2846251130104065
1773230434794171600,18.412171630859376,-0.30164241790771484,-0.42945897579193115,-0.26725447177886963
1773230434810162200,18.428162109375,0.2850608825683594,-0.4838050603866577,0.22004647552967072
1773230434826151000,18.44415087890625,0.8094539642333984,-0.03320157527923584,0.018545791506767273
1773230434842174700,18.4601748046875,0.36005687713623047,0.39226269721984863,-0.053438231348991394
1773230434858164500,18.47616455078125,-0.5638761520385742,0.019451141357421875,0.08144578337669373
1773230434874154800,18.49215478515625,-1.1362237930297852,-0.3887629508972168,-0.023328378796577454
1773230434890178600,18.508178466796874,-0.6740207672119141,-0.3484588861465454,-0.05472567677497864
1773230434906168800,18.5241689453125,0.1390247344970703,0.25098443031311035,-0.47988295555114746
1773230434922160400,18.540160400390626,-0.3466043472290039,0.04747200012207031,-0.41704195737838745
1773230434938184400,18.556184326171874,-0.8723211288452148,-0.3034921884536743,-0.3574725389480591
1773230434954172200,18.572172119140625,-0.4182882308959961,-0.3802741765975952,-0.32229357957839966
1773230434970166000,18.588166015625,0.684779167175293,-0.10732948780059814,-0.12851020693778992
1773230434986158300,18.604158447265625,1.0558595657348633,0.13563501834869385,-0.3267092704772949
1773230435002179600,18.6201796875,0.6506414413452148,0.057598114013671875,-0.17357322573661804
1773230435018170600,18.636170654296876,0.41306591033935547,-0.08970248699188232,0.15236088633537292
1773230435034161400,18.652161376953124,0.6037769317626953,-0.14986348152160645,0.3272800147533417
1773230435050183000,18.668182861328123,0.4598560333251953,-0.19642961025238037,0.23218689858913422
1773230435066173400,18.68417333984375,0.2946491241455078,-0.09496784210205078,0.25492554903030396
1773230435082165200,18.700165283203123,0.2779407501220703,-0.04376184940338135,0.08322300016880035
1773230435098156800,18.71615673828125,-0.013762474060058594,-0.28448593616485596,0.25605905055999756
1773230435114178800,18.7321787109375,-0.5043115615844727,-0.4497896432876587,0.07387779653072357
1773230435130170400,18.74817041015625,-0.6700668334960938,-0.444618821144104,-0.16485124826431274
1773230435146161200,18.7641611328125,-0.11895561218261719,-0.3139481544494629,0.042705684900283813
1773230435162182100,18.78018212890625,0.39592933654785156,-0.15302908420562744,0.010084182024002075
1773230435178174500,18.796174560546874,0.5772018432617188,-0.19590795040130615,-0.0331011563539505
1773230435194162400,18.812162353515625,0.25725460052490234,-0.22454261779785156,-0.29715827107429504
1773230435210156300,18.82815625,-0.20828914642333984,-0.01837146282196045,0.12534385919570923
1773230435226177500,18.844177490234376,1.085195541381836,-0.18955695629119873,0.355807363986969
1773230435242168800,18.8601689453125,1.9220657348632812,-0.15902554988861084,0.6300268173217773
1773230435258160400,18.876160400390624,1.6597833633422852,0.0013780593872070312,0.7578176259994507
1773230435274183200,18.89218310546875,0.7579488754272461,0.008071660995483398,0.4262056350708008
1773230435290171100,18.908171142578126,-0.6012458801269531,0.04050254821777344,-0.1611400544643402
1773230435306162000,18.924161865234375,-1.4680919647216797,0.04040813446044922,-0.45656320452690125
1773230435322154800,18.94015478515625,-1.9371614456176758,0.14755654335021973,-0.5380147099494934
1773230435338177500,18.956177490234374,-1.8741583824157715,0.3305368423461914,-0.4673391282558441
1773230435354167600,18.97216748046875,-1.2535419464111328,0.324002742767334,-0.8970710039138794
1773230435370160400,18.988160400390626,-0.49482059478759766,0.2227010726928711,-0.8315396308898926
1773230435386182000,19.004181884765625,0.4352149963378906,-0.07203507423400879,-0.36357319355010986
1773230435402173200,19.020173095703125,1.055281639099121,-0.10666775703430176,0.24923819303512573
1773230435418164500,19.03616455078125,1.3675689697265625,-0.12303876876831055,0.2607883810997009
1773230435434153000,19.052153076171876,1.095810890197754,-0.11407828330993652,-0.031331539154052734
1773230435450177500,19.068177490234376,0.8196477890014648,-0.12499117851257324,-0.1237456202507019
1773230435466169000,19.084169189453124,0.8904199600219727,-0.08240461349487305,0.20862221717834473
1773230435482160000,19.10016015625,1.0473947525024414,-0.15512144565582275,0.07970166206359863
1773230435498181600,19.116181640625,1.0215511322021484,-0.27388763427734375,-0.04521304368972778
1773230435514173200,19.132173095703124,0.4427509307861328,-0.6580101251602173,0.26307255029678345
1773230435530164200,19.148164306640624,-0.0860147476196289,-0.9530516862869263,0.5856159329414368
1773230435546153700,19.16415380859375,-0.024404525756835938,-0.9287785291671753,0.5577243566513062
1773230435562176500,19.180176513671874,0.4429960250854492,-0.5661027431488037,0.21197634935379028
1773230435578166300,19.196166259765626,0.18569087982177734,-0.2299591302871704,-0.20395177602767944
1773230435594157300,19.2121572265625,-0.5366783142089844,-0.07495546340942383,-0.7529752850532532
1773230435610180600,19.2281806640625,-0.4065065383911133,0.3003818988800049,-0.7602009177207947
1773230435626171000,19.2441708984375,0.5350027084350586,0.795856237411499,-0.1824662983417511
1773230435642162400,19.260162353515625,0.7656688690185547,0.8496119976043701,-0.42688819766044617
1773230435658154800,19.27615478515625,0.2906818389892578,0.7248325347900391,-0.4238368272781372
1773230435674176300,19.29217626953125,-0.18434429168701172,0.8955605030059814,-0.21134740114212036
1773230435690167600,19.30816748046875,0.005217552185058594,1.2986273765563965,1.1616783142089844
1773230435706157600,19.324157470703124,0.3111152648925781,1.5881166458129883,0.008516818284988403
1773230435722181000,19.34018115234375,0.08698272705078125,1.5070791244506836,-0.40202558040618896
1773230435738172200,19.356172119140624,0.1686115264892578,0.9299864768981934,-0.314510315656662
1773230435754162200,19.372162109375,-0.019186973571777344,0.4854099750518799,-0.31747058033943176
1773230435770151700,19.388151611328126,0.524958610534668,0.4642763137817383,-0.2365579903125763
1773230435786176800,19.4041767578125,1.2553787231445312,0.8800640106201172,-0.6341016292572021
1773230435802167600,19.42016748046875,1.5078802108764648,1.0978939533233643,-0.6903034448623657
1773230435818158600,19.43615869140625,1.474599838256836,1.1154794692993164,-0.4884375333786011
1773230435834180000,19.45218017578125,1.3619718551635742,1.0242116451263428,0.5345168113708496
1773230435850172000,19.468171875,1.1161623001098633,0.6860637664794922,0.5756046175956726
1773230435866161400,19.484161376953125,0.6313934326171875,0.271226167678833,0.20381686091423035
1773230435882183700,19.50018359375,0.10832500457763672,0.22030878067016602,0.27533483505249023
1773230435898175500,19.516175537109376,0.489410400390625,1.030348777770996,0.3287280797958374
1773230435914165000,19.5321650390625,0.7278642654418945,0.6700420379638672,0.0938461571931839
1773230435930158300,19.548158447265624,0.2792673110961914,-0.22028374671936035,0.2743580937385559
1773230435946179300,19.564179443359375,-0.39081859588623047,-0.8001765012741089,0.32733988761901855
1773230435962171400,19.58017138671875,0.1725320816040039,-0.6433844566345215,0.4805516302585602
1773230435978161000,19.596160888671875,1.2551488876342773,0.11372590065002441,0.18531641364097595
1773230435994152000,19.61215185546875,0.2505331039428711,-0.03409743309020996,0.004919335246086121
1773230436010175200,19.62817529296875,-1.563096046447754,-0.731642484664917,-0.2827759385108948
1773230436026165800,19.644165771484374,-2.0656275749206543,-0.3779873847961426,0.20010346174240112
1773230436042156500,19.660156494140626,-1.5749802589416504,-0.13811039924621582,0.1432957500219345
1773230436058177500,19.676177490234377,-0.6167840957641602,0.38407015800476074,-0.006968140602111816
1773230436074170400,19.69217041015625,-1.218881607055664,0.029823780059814453,-0.026660174131393433
1773230436090161200,19.7081611328125,-1.8860297203063965,-0.3624899387359619,-0.24997586011886597
1773230436106182100,19.72418212890625,-1.8487930297851562,-0.12722992897033691,0.29435375332832336
1773230436122175500,19.740175537109376,-1.207331657409668,0.45014119148254395,0.3840990662574768
1773230436138166300,19.756166259765624,-0.23208141326904297,0.8993046283721924,-0.10804393887519836
1773230436154156000,19.772156005859376,-0.09575271606445312,0.7725558280944824,-0.31562700867652893
1773230436170179300,19.788179443359375,-0.03505229949951172,0.757359504699707,-0.34825706481933594
1773230436186170000,19.804170166015624,0.6676816940307617,0.9855906963348389,-0.37516501545906067
1773230436202161700,19.82016162109375,1.4880666732788086,1.1360642910003662,-0.48852166533470154
1773230436218183000,19.836182861328126,1.682734489440918,1.0630981922149658,-0.4911738634109497
1773230436234173000,19.8521728515625,1.3061485290527344,1.0931217670440674,-0.055393725633621216
1773230436250163000,19.868162841796874,0.9863796234130859,0.7656795978546143,-0.3832802176475525
1773230436266157000,19.884156982421874,1.4332942962646484,0.6557416915893555,-0.5652248859405518
1773230436282178300,19.90017822265625,1.2456293106079102,0.21472620964050293,0.2940033972263336
1773230436298169000,19.916169189453125,0.2906675338745117,0.16800498962402344,-0.26783642172813416
1773230436314161200,19.9321611328125,-0.30418968200683594,0.0033464431762695312,-0.35562723875045776
1773230436330183000,19.948182861328124,-0.02375030517578125,-0.09874200820922852,-0.4196593761444092
1773230436346174000,19.964174072265624,0.23097610473632812,-0.19431090354919434,-0.12936413288116455
1773230436362164700,19.980164794921876,0.6433238983154297,0.055498361587524414,-0.23829291760921478
1773230436378155000,19.996155029296876,0.32750511169433594,0.24486637115478516,-0.20858421921730042
1773230436394178300,20.01217822265625,0.0850982666015625,0.06519389152526855,-0.0621715746819973
1773230436410169000,20.028169189453124,-0.18955707550048828,-0.33438944816589355,0.1418744921684265
1773230436426161200,20.0441611328125,-0.21708106994628906,-0.19776105880737305,0.13038009405136108
1773230436442181000,20.06018115234375,-0.2913961410522461,0.37966132164001465,-0.29897812008857727
1773230436458173700,20.076173583984374,-0.7707595825195312,0.33681178092956543,-0.5568959712982178
1773230436474164700,20.092164794921874,-1.403717041015625,0.030332326889038086,-0.4871697425842285
1773230436490155000,20.108155029296874,-1.3686065673828125,0.06974458694458008,-0.5943535566329956
1773230436506176800,20.1241767578125,-1.2444992065429688,0.22417640686035156,-0.2449493706226349
1773230436522167300,20.140167236328125,-1.1936712265014648,-0.1900951862335205,-0.3226189613342285
1773230436538159400,20.156159423828125,-1.287435531616211,-0.5592697858810425,-0.3121511936187744
1773230436554180000,20.17218017578125,-1.2189598083496094,-0.2195122241973877,-0.5045956969261169
1773230436570141000,20.188140869140625,-0.5975379943847656,0.43721723556518555,-0.46191921830177307
1773230436586165000,20.2041650390625,0.015824317932128906,0.45286083221435547,-0.035079821944236755
1773230436602154200,20.220154296875,0.37685203552246094,0.05899667739868164,0.9545942544937134
1773230436618178300,20.23617822265625,0.21198081970214844,-0.14653444290161133,1.2142422199249268
1773230436634168000,20.25216796875,0.2205791473388672,0.1523909568786621,1.1003562211990356
1773230436650160000,20.26816015625,0.9767045974731445,0.5571186542510986,1.1325664520263672
1773230436666179600,20.2841796875,0.9403505325317383,0.047287940979003906,1.103360891342163
