time,seconds_elapsed,z,y,x
1773230417058191000,0.676191162109375,9.56053352355957,2.166762351989746,0.26779672503471375
1773230417074184400,0.692184326171875,9.557342529296875,2.1821844577789307,0.25624582171440125
1773230417090176500,0.708176513671875,9.55823040008545,2.1819589138031006,0.22288210690021515
1773230417105747000,0.723746826171875,9.569101333618164,2.139421224594116,0.1598966270685196
1773230417122190000,0.740190185546875,9.58566951751709,2.0675525665283203,0.1027313694357872
1773230417138180900,0.756180908203125,9.601139068603516,1.9942716360092163,0.10676584392786026
1773230417154172200,0.772172119140625,9.605324745178223,1.9690388441085815,0.17609697580337524
1773230417170193200,0.788193115234375,9.602404594421387,1.97834312915802,0.22445425391197205
1773230417186183700,0.80418359375,9.590392112731934,2.0346131324768066,0.23475217819213867
1773230417202174700,0.8201748046875,9.572488784790039,2.1222035884857178,0.18462859094142914
1773230417218198500,0.836198486328125,9.554943084716797,2.2062816619873047,0.07602471113204956
1773230417242183400,0.860183349609375,9.545249938964844,2.240818738937378,-0.19321298599243164
1773230417282194200,0.900194091796875,9.546860694885254,2.2350971698760986,-0.1794089823961258
1773230417298183200,0.91618310546875,9.55258846282959,2.214456558227539,-0.12086835503578186
1773230417314175500,0.932175537109375,9.560591697692871,2.182558059692383,-0.04360876604914665
1773230417330197000,0.948197021484375,9.5675048828125,2.152116298675537,0.040259238332509995
1773230417346187800,0.964187744140625,9.568513870239258,2.145526170730591,0.10313984006643295
1773230417362178800,0.9801787109375,9.57304573059082,2.125108242034912,0.10538524389266968
1773230417378170000,0.996170166015625,9.576754570007324,2.108455181121826,0.10285079479217529
1773230417393810000,1.011809814453125,9.579855918884277,2.094385862350464,0.10143164545297623
1773230417410184200,1.02818408203125,9.582230567932129,2.0834908485412598,0.10159213095903397
1773230417426175200,1.04417529296875,9.583969116210938,2.0756163597106934,0.09871084243059158
1773230417442197800,1.06019775390625,9.58481502532959,2.07192063331604,0.09413959085941315
1773230417458188300,1.076188232421875,9.584815979003906,2.072145700454712,0.08894403278827667
1773230417474179600,1.0921796875,9.584285736083984,2.0748496055603027,0.08280859887599945
1773230417490170600,1.108170654296875,9.584118843078613,2.0759031772613525,0.0753810778260231
1773230417506192100,1.124192138671875,9.585219383239746,2.0709176063537598,0.07247962057590485
1773230417522184000,1.140183837890625,9.587636947631836,2.059640407562256,0.07403744012117386
1773230417538174700,1.1561748046875,9.590508460998535,2.046043872833252,0.07905446738004684
1773230417554196200,1.1721962890625,9.592849731445312,2.034878730773926,0.08304357528686523
1773230417570187500,1.1881875,9.592965126037598,2.034296989440918,0.0839630663394928
1773230417586177000,1.204177001953125,9.590604782104492,2.0456595420837402,0.07719141244888306
1773230417602201300,1.220201416015625,9.58586311340332,2.06823468208313,0.06352050602436066
1773230417618190600,1.236190673828125,9.579882621765137,2.0961766242980957,0.047827042639255524
1773230417634182400,1.252182373046875,9.57282543182373,2.1284220218658447,0.03506704047322273
1773230417650174000,1.268174072265625,9.564090728759766,2.167403221130371,0.030254049226641655
1773230417666195200,1.2841953125,9.55048942565918,2.226567268371582,0.030631395056843758
1773230417682186500,1.3001865234375,9.532198905944824,2.3036937713623047,0.023799613118171692
1773230417698176500,1.316176513671875,9.5110502243042,2.389627695083618,0.001291647320613265
1773230417714169600,1.332169677734375,9.491881370544434,2.464383840560913,-0.037273209542036057
1773230417730190800,1.34819091796875,9.476273536682129,2.5221359729766846,-0.09718608111143112
1773230417746183000,1.364182861328125,9.462329864501953,2.5711488723754883,-0.15455803275108337
1773230417762174200,1.38017431640625,9.451019287109375,2.6066677570343018,-0.2321571260690689
1773230417778193700,1.396193603515625,9.440171241760254,2.6379449367523193,-0.30790942907333374
1773230417794187500,1.4121875,9.432562828063965,2.658630609512329,-0.35892754793167114
1773230417810178300,1.42817822265625,9.430042266845703,2.6654434204101562,-0.37430357933044434
1773230417826199000,1.444198974609375,9.434165954589844,2.6506898403167725,-0.375154584646225
1773230417842191600,1.460191650390625,9.441743850708008,2.623324394226074,-0.3768640160560608
1773230417858182000,1.476181884765625,9.45058536529541,2.591379165649414,-0.3762693405151367
1773230417874174200,1.49217431640625,9.459718704223633,2.559156894683838,-0.36720019578933716
1773230417890195200,1.5081953125,9.468280792236328,2.528895139694214,-0.35600748658180237
1773230417906186200,1.524186279296875,9.475082397460938,2.503720760345459,-0.3529563248157501
1773230417922176800,1.5401767578125,9.478363990783691,2.490407943725586,-0.35898762941360474
1773230417938199300,1.55619921875,9.478307723999023,2.4891881942749023,-0.368802547454834
1773230417954189600,1.572189453125,9.475320816040039,2.499255418777466,-0.37736448645591736
1773230417970181600,1.588181640625,9.47106647491455,2.5140511989593506,-0.3858054280281067
1773230417986173000,1.6041728515625,9.466806411743164,2.529787063598633,-0.3874867856502533
1773230418002195500,1.620195556640625,9.464507102966309,2.5395781993865967,-0.37950965762138367
1773230418018186000,1.63618603515625,9.46582317352295,2.5368130207061768,-0.36488449573516846
1773230418034178300,1.65217822265625,9.471027374267578,2.5194151401519775,-0.3500988185405731
1773230418050169600,1.668169677734375,9.479325294494629,2.489823341369629,-0.33698728680610657
1773230418066188500,1.6841884765625,9.488059043884277,2.4583544731140137,-0.32190337777137756
1773230418082180400,1.700180419921875,9.497081756591797,2.4231321811676025,-0.3228842318058014
1773230418098171600,1.716171630859375,9.506577491760254,2.3838226795196533,-0.3358080983161926
1773230418114195000,1.73219482421875,9.516839981079102,2.3409433364868164,-0.3466150462627411
1773230418130185700,1.748185791015625,9.52849006652832,2.2939558029174805,-0.34064051508903503
1773230418146177300,1.76417724609375,9.54164981842041,2.2408711910247803,-0.32527774572372437
1773230418162199600,1.780199462890625,9.555052757263184,2.1857168674468994,-0.30660292506217957
1773230418178188500,1.7961884765625,9.56723690032959,2.134411334991455,-0.28749921917915344
1773230418194181000,1.81218115234375,9.577215194702148,2.0915770530700684,-0.26951512694358826
1773230418210173000,1.8281728515625,9.585081100463867,2.057765483856201,-0.24945224821567535
1773230418226194200,1.844194091796875,9.591805458068848,2.027186870574951,-0.24118444323539734
1773230418242184200,1.86018408203125,9.596820831298828,2.0026473999023438,-0.24661344289779663
1773230418258175700,1.87617578125,9.60055160522461,1.9845538139343262,-0.2476627677679062
1773230418274199000,1.892198974609375,9.604364395141602,1.9661731719970703,-0.24645668268203735
1773230418290189300,1.908189208984375,9.60858154296875,1.9452320337295532,-0.24821455776691437
1773230418306179600,1.9241796875,9.613211631774902,1.9222519397735596,-0.24798224866390228
1773230418322172200,1.940172119140625,9.617901802062988,1.8999149799346924,-0.23803865909576416
1773230418338193400,1.956193359375,9.622239112854004,1.8797701597213745,-0.22218918800354004
1773230418354183700,1.97218359375,9.62555980682373,1.8647270202636719,-0.2043691724538803
1773230418370176500,1.988176513671875,9.627503395080566,1.8566334247589111,-0.18570882081985474
1773230418386197500,2.004197509765625,9.628101348876953,1.8549352884292603,-0.17110279202461243
1773230418402190000,2.020190185546875,9.626758575439453,1.8625937700271606,-0.1632571816444397
1773230418418181400,2.036181396484375,9.623052597045898,1.8816955089569092,-0.16265596449375153
1773230418434172000,2.052171875,9.617992401123047,1.9071965217590332,-0.16495507955551147
1773230418450194400,2.0681943359375,9.612485885620117,1.9341816902160645,-0.17162202298641205
1773230418466185200,2.084185302734375,9.606955528259277,1.960884928703308,-0.178072988986969
1773230418482176300,2.10017626953125,9.601491928100586,1.9880461692810059,-0.1715020090341568
1773230418498197800,2.11619775390625,9.596226692199707,2.0145649909973145,-0.1560330092906952
1773230418514186200,2.132186279296875,9.590693473815918,2.0418944358825684,-0.1401619166135788
1773230418530179800,2.148179931640625,9.584100723266602,2.0734872817993164,-0.12669837474822998
1773230418546169000,2.164169189453125,9.576516151428223,2.108814239501953,-0.11679141968488693
1773230418562193700,2.180193603515625,9.569051742553711,2.1428515911102295,-0.10872480273246765
1773230418578183700,2.19618359375,9.562209129333496,2.1735799312591553,-0.10043686628341675
1773230418594174500,2.212174560546875,9.55663013458252,2.198418140411377,-0.09029818326234818
1773230418610196500,2.228196533203125,9.552363395690918,2.2171926498413086,-0.08248893916606903
1773230418626187800,2.244187744140625,9.54904556274414,2.2316384315490723,-0.07687350362539291
1773230418642180000,2.26018017578125,9.546624183654785,2.242204427719116,-0.0699082687497139
1773230418658199300,2.27619921875,9.544961929321289,2.2495615482330322,-0.059796299785375595
1773230418674193700,2.292193603515625,9.544197082519531,2.2529690265655518,-0.05297726392745972
1773230418690184400,2.308184326171875,9.543617248535156,2.25545597076416,-0.0516677163541317
1773230418706176000,2.324176025390625,9.541956901550293,2.2623581886291504,-0.056363362818956375
1773230418722197000,2.340197021484375,9.539678573608398,2.271859884262085,-0.059732768684625626
1773230418738189000,2.35618896484375,9.538743019104004,2.275846242904663,-0.05736479535698891
1773230418754178300,2.37217822265625,9.539849281311035,2.2713215351104736,-0.05256572738289833
1773230418770168800,2.3881689453125,9.541983604431152,2.262378215789795,-0.050908349454402924
1773230418786191600,2.404191650390625,9.544341087341309,2.2523176670074463,-0.054907504469156265
1773230418802183000,2.420182861328125,9.547883033752441,2.2371044158935547,-0.06053765490651131
1773230418818174200,2.43617431640625,9.553376197814941,2.2133989334106445,-0.06523406505584717
1773230418834197200,2.452197265625,9.56023120880127,2.18346905708313,-0.06954426318407059
1773230418850186800,2.468186767578125,9.567760467529297,2.150157928466797,-0.07184150069952011
1773230418866178300,2.48417822265625,9.575456619262695,2.1157007217407227,-0.06942424923181534
1773230418882170600,2.500170654296875,9.582589149475098,2.083327054977417,-0.06423646956682205
1773230418898191000,2.516191162109375,9.58901309967041,2.0537776947021484,-0.056696102023124695
1773230418914184000,2.532183837890625,9.594968795776367,2.025984287261963,-0.048342883586883545
1773230418930175000,2.548175048828125,9.600502014160156,1.9997398853302002,-0.04228796809911728
1773230418946196000,2.564196044921875,9.605403900146484,1.9760711193084717,-0.0418272539973259
1773230418962187300,2.580187255859375,9.609833717346191,1.9543672800064087,-0.044036418199539185
1773230418978179300,2.596179443359375,9.614282608032227,1.9324333667755127,-0.040901921689510345
1773230418994169900,2.612169921875,9.619194030761719,1.9079668521881104,-0.03405420854687691
1773230419010190800,2.62819091796875,9.623719215393066,1.8849785327911377,-0.0357077494263649
1773230419026183000,2.644182861328125,9.625953674316406,1.8731375932693481,-0.05255717784166336
1773230419042174000,2.660174072265625,9.624374389648438,1.8803852796554565,-0.07721567153930664
1773230419058195700,2.67619580078125,9.62122917175293,1.8953551054000854,-0.09989000856876373
1773230419074187500,2.6921875,9.620413780212402,1.89903724193573,-0.1080896407365799
1773230419090178300,2.70817822265625,9.622164726257324,1.8903520107269287,-0.10436473786830902
1773230419106168800,2.7241689453125,9.624909400939941,1.8767684698104858,-0.09611783176660538
1773230419122191000,2.740191162109375,9.62726879119873,1.8650752305984497,-0.08706961572170258
1773230419138182700,2.7561826171875,9.628294944763184,1.860147476196289,-0.07858926057815552
1773230419154172700,2.772172607421875,9.627043724060059,1.8668711185455322,-0.07218921929597855
1773230419170194000,2.78819384765625,9.623602867126465,1.8842765092849731,-0.07853998243808746
1773230419186187300,2.804187255859375,9.618720054626465,1.9084134101867676,-0.09253989905118942
1773230419202177000,2.820177001953125,9.613418579101562,1.9344322681427002,-0.10272505134344101
1773230419218199800,2.83619970703125,9.608211517333984,1.9603172540664673,-0.09903813898563385
1773230419234190800,2.85219091796875,9.602988243103027,1.9861352443695068,-0.0908796414732933
1773230419250182100,2.86818212890625,9.596921920776367,2.0153520107269287,-0.0884854719042778
1773230419266172200,2.884172119140625,9.58956527709961,2.05007266998291,-0.08848996460437775
1773230419282195500,2.900195556640625,9.582235336303711,2.0841569900512695,-0.08627601712942123
1773230419298184700,2.916184814453125,9.576780319213867,2.109330892562866,-0.07990078628063202
1773230419314176000,2.932176025390625,9.573911666870117,2.1226723194122314,-0.06973817199468613
1773230419330199000,2.948198974609375,9.572372436523438,2.1299359798431396,-0.058778535574674606
1773230419346191000,2.964191162109375,9.570845603942871,2.1370456218719482,-0.04845584183931351
1773230419362182000,2.980181884765625,9.569676399230957,2.142454147338867,-0.03958020731806755
1773230419378174000,2.996174072265625,9.569178581237793,2.1447179317474365,-0.03718290105462074
1773230419394195700,3.01219580078125,9.568882942199707,2.146019458770752,-0.03822923079133034
1773230419410186000,3.02818603515625,9.569315910339355,2.144104480743408,-0.03744158521294594
1773230419426177500,3.044177490234375,9.570357322692871,2.139500856399536,-0.03422467038035393
1773230419442197800,3.06019775390625,9.570954322814941,2.1369054317474365,-0.029294265434145927
1773230419458190300,3.0761904296875,9.571596145629883,2.1340560913085938,-0.027313174679875374
1773230419474182100,3.09218212890625,9.57366943359375,2.1247711181640625,-0.02443758212029934
1773230419490172000,3.108171875,9.577589988708496,2.107111930847168,-0.015445845201611519
1773230419506194700,3.124194580078125,9.583450317382812,2.080348253250122,-0.004803418181836605
1773230419522186000,3.14018603515625,9.590459823608398,2.0477969646453857,-0.0016798428259789944
1773230419538176500,3.156176513671875,9.597187995910645,2.016023874282837,-0.0049656229093670845
1773230419554198800,3.17219873046875,9.603626251220703,1.9851293563842773,-0.0046618543565273285
1773230419570190000,3.188190185546875,9.610337257385254,1.9523817300796509,-0.0026403218507766724
1773230419586181400,3.204181396484375,9.617104530334473,1.9187750816345215,0.0001441942440578714
1773230419602171400,3.22017138671875,9.624130249023438,1.883197546005249,0.008736776188015938
1773230419618192600,3.236192626953125,9.630895614624023,1.8481944799423218,0.020252404734492302
1773230419634185700,3.252185791015625,9.637622833251953,1.8126107454299927,0.032553669065237045
1773230419650175700,3.26817578125,9.643980026245117,1.778349757194519,0.03881320357322693
1773230419666196500,3.284196533203125,9.649770736694336,1.7468295097351074,0.029976366087794304
1773230419682190000,3.300190185546875,9.65263843536377,1.7309592962265015,0.02735281176865101
1773230419698180400,3.316180419921875,9.654121398925781,1.7227725982666016,0.01962883025407791
1773230419714171600,3.332171630859375,9.65538215637207,1.7157483100891113,0.013450287282466888
1773230419730193400,3.348193359375,9.656394004821777,1.71004056930542,0.014809885062277317
1773230419746184700,3.364184814453125,9.656847953796387,1.707389235496521,0.02199559472501278
1773230419762176000,3.380176025390625,9.656810760498047,1.7075213193893433,0.027893969789147377
1773230419778196700,3.39619677734375,9.65658187866211,1.7087836265563965,0.029546011239290237
1773230419794187800,3.412187744140625,9.656439781188965,1.7095226049423218,0.033002689480781555
1773230419810180400,3.428180419921875,9.655804634094238,1.7129143476486206,0.041972946375608444
1773230419826171600,3.444171630859375,9.654365539550781,1.7207891941070557,0.0500328466296196
1773230419842191600,3.460191650390625,9.652205467224121,1.7326706647872925,0.05636146292090416
1773230419858184000,3.476183837890625,9.649344444274902,1.7481974363327026,0.06594218313694
1773230419874176000,3.492176025390625,9.645718574523926,1.767539620399475,0.07942019402980804
1773230419890197200,3.508197265625,9.641467094421387,1.7901074886322021,0.08948446065187454
1773230419906189300,3.524189208984375,9.636816024780273,1.8146661520004272,0.0956297218799591
1773230419922180600,3.5401806640625,9.632448196411133,1.8372838497161865,0.1035216748714447
1773230419938201300,3.556201416015625,9.628890991210938,1.8552404642105103,0.11365385353565216
1773230419954193000,3.57219287109375,9.626014709472656,1.8699043989181519,0.11695227771997452
1773230419970183400,3.588183349609375,9.623394966125488,1.8834679126739502,0.11494221538305283
1773230419986173000,3.6041728515625,9.621316909790039,1.8941062688827515,0.11403412371873856
1773230420002197800,3.62019775390625,9.620340347290039,1.8990275859832764,0.1146005243062973
1773230420018187800,3.636187744140625,9.62042236328125,1.8985706567764282,0.11522464454174042
1773230420034178300,3.65217822265625,9.62098503112793,1.8956921100616455,0.11569328606128693
1773230420050201600,3.66820166015625,9.621642112731934,1.8922914266586304,0.11670838296413422
1773230420066191000,3.684191162109375,9.621856689453125,1.8910648822784424,0.11888904869556427
1773230420082182000,3.700181884765625,9.621156692504883,1.8943204879760742,0.12364603579044342
1773230420098174200,3.71617431640625,9.6205472946167,1.896956205368042,0.13043935596942902
1773230420114197000,3.732197021484375,9.621012687683105,1.894302487373352,0.13461853563785553
1773230420130187800,3.748187744140625,9.62236213684082,1.887446641921997,0.13446567952632904
1773230420146179000,3.764178955078125,9.623726844787598,1.8806055784225464,0.13261063396930695
1773230420162200600,3.78020068359375,9.625399589538574,1.8716636896133423,0.1376343071460724
1773230420178191400,3.79619140625,9.62844181060791,1.8548520803451538,0.15173567831516266
1773230420194183700,3.81218359375,9.63177490234375,1.8365819454193115,0.16205285489559174
1773230420210173200,3.828173095703125,9.63399887084961,1.8251596689224243,0.15888027846813202
1773230420226195200,3.8441953125,9.635673522949219,1.8167060613632202,0.15416455268859863
1773230420242185700,3.860185791015625,9.637979507446289,1.804003119468689,0.15905480086803436
1773230420258177300,3.87617724609375,9.641115188598633,1.7867217063903809,0.1640249490737915
1773230420274199000,3.892198974609375,9.644522666931152,1.7681914567947388,0.16451968252658844
1773230420290191000,3.908191162109375,9.648026466369629,1.7487461566925049,0.16691464185714722
1773230420306182000,3.924181884765625,9.650566101074219,1.734158992767334,0.17219382524490356
1773230420322174700,3.9401748046875,9.652020454406738,1.7259212732315063,0.1734374761581421
1773230420338195700,3.95619580078125,9.653130531311035,1.7199609279632568,0.17087577283382416
1773230420354186800,3.972186767578125,9.654410362243652,1.713132381439209,0.1671329289674759
1773230420370177500,3.988177490234375,9.65560245513916,1.7071592807769775,0.15916450321674347
1773230420386200600,4.00420068359375,9.654838562011719,1.71291983127594,0.1428050994873047
1773230420402188500,4.0201884765625,9.651865005493164,1.731107234954834,0.12315138429403305
1773230420418182700,4.0361826171875,9.649344444274902,1.7461659908294678,0.10691829770803452
1773230420434173200,4.052173095703125,9.648472785949707,1.7515748739242554,0.09665577113628387
1773230420450194400,4.0681943359375,9.64781665802002,1.7557049989700317,0.08673917502164841
1773230420466187500,4.0841875,9.645936012268066,1.7664599418640137,0.07686623930931091
1773230420482178000,4.100177978515625,9.643272399902344,1.7812261581420898,0.07004135847091675
1773230420498200600,4.11620068359375,9.64113998413086,1.7929387092590332,0.06468359380960464
1773230420514190300,4.1321904296875,9.639803886413574,1.800245761871338,0.060628876090049744
1773230420530183000,4.148182861328125,9.638925552368164,1.805048942565918,0.057507675141096115
1773230420546171400,4.16417138671875,9.63724422454834,1.8140836954116821,0.054752714931964874
1773230420562195700,4.18019580078125,9.634389877319336,1.8291826248168945,0.054842546582221985
1773230420578186200,4.196186279296875,9.63148021697998,1.8442723751068115,0.06026789918541908
1773230420594178000,4.212177978515625,9.629416465759277,1.8548370599746704,0.06555592268705368
1773230420610199000,4.228198974609375,9.627873420715332,1.862716555595398,0.06874189525842667
1773230420626189800,4.24418994140625,9.62618637084961,1.8712737560272217,0.07253982871770859
1773230420642180600,4.2601806640625,9.623987197875977,1.882393479347229,0.07647000253200531
1773230420658202600,4.27620263671875,9.621801376342773,1.8934500217437744,0.07852372527122498
1773230420674193700,4.292193603515625,9.61975383758545,1.9036574363708496,0.08260149508714676
1773230420690185700,4.308185791015625,9.618002891540527,1.9123502969741821,0.08559475839138031
1773230420706175200,4.32417529296875,9.616090774536133,1.9219036102294922,0.08641991764307022
1773230420722198500,4.340198486328125,9.614749908447266,1.928488850593567,0.08885306119918823
1773230420738188800,4.356188720703125,9.614493370056152,1.929682731628418,0.0907268226146698
1773230420754181000,4.37218115234375,9.614891052246094,1.927686333656311,0.09098730236291885
1773230420770203000,4.388202880859375,9.61585807800293,1.922659158706665,0.09508786350488663
1773230420786192400,4.4041923828125,9.617124557495117,1.9159786701202393,0.10166008770465851
1773230420802186200,4.420186279296875,9.618219375610352,1.910291314125061,0.10496965050697327
1773230420818175500,4.436175537109375,9.619468688964844,1.9038125276565552,0.1082250326871872
1773230420834197500,4.452197509765625,9.621142387390137,1.8949756622314453,0.11429182440042496
1773230420850189000,4.46818896484375,9.62303638458252,1.88498055934906,0.12005071341991425
1773230420866182000,4.484181884765625,9.623571395874023,1.882118582725525,0.12201712280511856
1773230420882171600,4.500171630859375,9.62441635131836,1.8778010606765747,0.12189459055662155
1773230420898194200,4.516194091796875,9.625348091125488,1.8731714487075806,0.11957769095897675
1773230420914184200,4.53218408203125,9.626175880432129,1.8690426349639893,0.11748626828193665
1773230420930176000,4.548176025390625,9.628195762634277,1.8588606119155884,0.11341427266597748
1773230420946196200,4.5641962890625,9.631637573242188,1.8414666652679443,0.10462452471256256
1773230420962189300,4.580189208984375,9.635689735412598,1.8206875324249268,0.09468593448400497
1773230420978180400,4.596180419921875,9.640032768249512,1.7979888916015625,0.086006298661232
1773230420994172200,4.612172119140625,9.643379211425781,1.7803975343704224,0.07623258233070374
1773230421010193000,4.62819287109375,9.646758079528809,1.7623341083526611,0.06790270656347275
1773230421026184400,4.644184326171875,9.650055885314941,1.744423508644104,0.061700489372015
1773230421042175200,4.66017529296875,9.65108871459961,1.7390093803405762,0.05224917083978653
1773230421058198500,4.676198486328125,9.649962425231934,1.7454208135604858,0.04615132883191109
1773230421074188300,4.692188232421875,9.649290084838867,1.7491512298583984,0.04543349891901016
1773230421090179800,4.708179931640625,9.64952278137207,1.7480109930038452,0.03953183814883232
1773230421106202600,4.72420263671875,9.649240493774414,1.749765157699585,0.029646877199411392
1773230421122193000,4.74019287109375,9.64836311340332,1.7546204328536987,0.02799260802567005
1773230421138183200,4.75618310546875,9.648192405700684,1.7555571794509888,0.028135377913713455
1773230421154176300,4.77217626953125,9.648070335388184,1.756325125694275,0.0213326383382082
1773230421170196700,4.78819677734375,9.646896362304688,1.762834906578064,0.013682854361832142
1773230421186188000,4.80418798828125,9.645611763000488,1.7698371410369873,0.015400179661810398
1773230421202179600,4.8201796875,9.645376205444336,1.7710771560668945,0.019854271784424782
1773230421218200600,4.83620068359375,9.64478588104248,1.7742880582809448,0.01956171914935112
1773230421234193200,4.852193115234375,9.64340877532959,1.7817741632461548,0.01818929798901081
1773230421250182700,4.8681826171875,9.642524719238281,1.7865619659423828,0.017434461042284966
1773230421266175200,4.88417529296875,9.642375946044922,1.7873477935791016,0.018731918185949326
1773230421282197500,4.900197509765625,9.641441345214844,1.7923325300216675,0.023223603144288063
1773230421298188500,4.9161884765625,9.639592170715332,1.8021972179412842,0.027058029547333717
1773230421314179800,4.932179931640625,9.637871742248535,1.811383843421936,0.026635129004716873
1773230421330200300,4.948200439453125,9.636611938476562,1.818114161491394,0.023694800212979317
1773230421346191400,4.96419140625,9.634544372558594,1.8290787935256958,0.02043667621910572
1773230421362182100,4.98018212890625,9.631738662719727,1.843808889389038,0.019102174788713455
1773230421378175000,4.996175048828125,9.630239486694336,1.8516285419464111,0.018740355968475342
1773230421394195500,5.012195556640625,9.629874229431152,1.853530764579773,0.018085984513163567
1773230421410187500,5.0281875,9.62874984741211,1.8593584299087524,0.018914325162768364
1773230421426178800,5.0441787109375,9.627007484436035,1.868285894393921,0.02477174624800682
1773230421442170600,5.060170654296875,9.625886917114258,1.873978614807129,0.02979264222085476
1773230421458192400,5.0761923828125,9.625462532043457,1.8761540651321411,0.03009871393442154
1773230421474180400,5.092180419921875,9.625297546386719,1.876975178718567,0.031634509563446045
1773230421490174000,5.108174072265625,9.624998092651367,1.8784219026565552,0.03658737987279892
1773230421506195500,5.124195556640625,9.624617576599121,1.8802146911621094,0.043803632259368896
1773230421522187500,5.1401875,9.624650955200195,1.8798880577087402,0.049980055540800095
1773230421538177300,5.15617724609375,9.624627113342285,1.8799396753311157,0.05264562368392944
1773230421554200000,5.172199951171875,9.623638153076172,1.8849050998687744,0.05585026368498802
1773230421570190800,5.18819091796875,9.621761322021484,1.894276738166809,0.06178951635956764
1773230421586183700,5.20418359375,9.620360374450684,1.9012506008148193,0.06557005643844604
1773230421602174700,5.2201748046875,9.619861602783203,1.903937578201294,0.06055241450667381
1773230421618195700,5.23619580078125,9.620166778564453,1.9025440216064453,0.055638521909713745
1773230421634185500,5.252185546875,9.62137222290039,1.896353840827942,0.0584811232984066
1773230421650177800,5.268177734375,9.622786521911621,1.8890146017074585,0.06312577426433563
1773230421666200300,5.284200439453125,9.624310493469238,1.8811756372451782,0.06478650867938995
1773230421682192000,5.30019189453125,9.625699043273926,1.8741198778152466,0.06303700059652328
1773230421698181600,5.316181640625,9.626077651977539,1.87220299243927,0.06229286268353462
1773230421714174000,5.332174072265625,9.625858306884766,1.8732465505599976,0.06474752724170685
1773230421730195500,5.348195556640625,9.626385688781738,1.8705285787582397,0.06494363397359848
1773230421746187000,5.36418701171875,9.626872062683105,1.8681851625442505,0.06005534902215004
1773230421762177300,5.38017724609375,9.62606430053711,1.8724822998046875,0.055470507591962814
1773230421778200300,5.396200439453125,9.624701499938965,1.879543423652649,0.05325125902891159
1773230421794191000,5.412191162109375,9.623523712158203,1.8856563568115234,0.04973415657877922
1773230421810181400,5.428181396484375,9.622001647949219,1.8935433626174927,0.04423457011580467
1773230421826204200,5.4442041015625,9.620688438415527,1.9003371000289917,0.03821125626564026
1773230421842193400,5.460193359375,9.620285034179688,1.9024683237075806,0.03356624394655228
1773230421858186800,5.476186767578125,9.620622634887695,1.9008545875549316,0.02762395702302456
1773230421874177800,5.492177734375,9.619671821594238,1.9057468175888062,0.02043532393872738
1773230421890199600,5.508199462890625,9.616888999938965,1.9197958707809448,0.014617248438298702
1773230421906189000,5.52418896484375,9.613875389099121,1.9348669052124023,0.00916270911693573
1773230421922181000,5.54018115234375,9.61073112487793,1.9504457712173462,-0.000781505776103586
1773230421938203600,5.55620361328125,9.606538772583008,1.9709784984588623,-0.006907806731760502
1773230421954195200,5.5721953125,9.602057456970215,1.992678165435791,-0.010879450477659702
1773230421970184700,5.588184814453125,9.600071907043457,2.0021793842315674,-0.016703663393855095
1773230421986176800,5.6041767578125,9.600719451904297,1.9990527629852295,-0.018759828060865402
1773230422002198500,5.620198486328125,9.600868225097656,1.9983491897583008,-0.01796637661755085
1773230422018188800,5.636188720703125,9.5989990234375,2.0073304176330566,-0.014729403890669346
1773230422034180000,5.65218017578125,9.597479820251465,2.014587640762329,-0.013693959452211857
1773230422050203000,5.668202880859375,9.596776008605957,2.0179355144500732,-0.014688998460769653
1773230422066195000,5.68419482421875,9.59581184387207,2.0225560665130615,-0.0068589262664318085
1773230422082185500,5.700185546875,9.59567928314209,2.0231966972351074,-0.00034194529871456325
1773230422098175500,5.716175537109375,9.597168922424316,2.0161166191101074,0.001289893756620586
1773230422114198000,5.732197998046875,9.598877906799316,2.00795578956604,0.006120894104242325
1773230422130188800,5.748188720703125,9.600264549255371,2.001253604888916,0.016767559573054314
1773230422146180600,5.7641806640625,9.60176944732666,1.993920087814331,0.02645023725926876
1773230422162202400,5.780202392578125,9.602348327636719,1.9911034107208252,0.02827182598412037
1773230422178194200,5.796194091796875,9.601249694824219,1.9964354038238525,0.025182044133543968
1773230422194185000,5.81218505859375,9.599871635437012,2.003074884414673,0.02338854782283306
1773230422210176300,5.82817626953125,9.599762916564941,2.003554105758667,0.026757512241601944
1773230422226198000,5.844197998046875,9.600448608398438,2.000247001647949,0.02814820036292076
1773230422242188000,5.86018798828125,9.599747657775879,2.003628730773926,0.02652297355234623
1773230422258179000,5.876178955078125,9.598437309265137,2.0099141597747803,0.024981040507555008
1773230422274200800,5.892200927734375,9.5978422164917,2.0126466751098633,0.03266739472746849
1773230422290122500,5.90812255859375,9.597600936889648,2.0136685371398926,0.03982377052307129
1773230422306115300,5.924115234375,9.597549438476562,2.0137689113616943,0.04667031019926071
1773230422322105000,5.94010498046875,9.597970962524414,2.0117015838623047,0.04901793226599693
1773230422338127400,5.95612744140625,9.59912395477295,2.006200075149536,0.04868939518928528
1773230422354119000,5.972118896484375,9.600175857543945,2.001169443130493,0.0484614335000515
1773230422370110700,5.98811083984375,9.600991249084473,1.9972609281539917,0.04793854057788849
1773230422386131500,6.00413134765625,9.601739883422852,1.993674397468567,0.047302983701229095
1773230422402122500,6.02012255859375,9.602531433105469,1.989871859550476,0.04679134488105774
1773230422418115300,6.036115234375,9.603365898132324,1.9858424663543701,0.046622928231954575
1773230422434104300,6.052104248046875,9.604132652282715,1.982139229774475,0.046366725116968155
1773230422450097200,6.06809716796875,9.604852676391602,1.9786478281021118,0.046298664063215256
1773230422466120200,6.0841201171875,9.605443954467773,1.9757310152053833,0.04814016446471214
1773230422482110500,6.1001103515625,9.605895042419434,1.9734065532684326,0.053227514028549194
1773230422498132000,6.116132080078125,9.605406761169434,1.9757137298583984,0.05580828711390495
1773230422514123000,6.132123046875,9.604692459106445,1.97915518283844,0.056782063096761703
1773230422530113300,6.14811328125,9.604758262634277,1.9788347482681274,0.05677512288093567
1773230422546105000,6.16410498046875,9.605371475219727,1.975878119468689,0.05598751828074455
1773230422562126800,6.180126953125,9.605467796325684,1.9754337072372437,0.05513488128781319
1773230422578116000,6.1961162109375,9.605029106140137,1.9776357412338257,0.052557650953531265
1773230422594109000,6.21210888671875,9.606155395507812,1.9719544649124146,0.05966956540942192
1773230422610130700,6.228130615234375,9.607276916503906,1.9662363529205322,0.06731525808572769
1773230422626121200,6.244121337890625,9.60704231262207,1.9674040079116821,0.06671202927827835
1773230422642111700,6.26011181640625,9.604514122009277,1.9798548221588135,0.062258925288915634
1773230422658135600,6.276135498046875,9.60156536102295,1.9941563606262207,0.06056823208928108
1773230422674126800,6.292126953125,9.599923133850098,2.002072334289551,0.059696562588214874
1773230422690116900,6.308116943359375,9.599059104919434,2.006368637084961,0.05417049303650856
1773230422706108700,6.324108642578125,9.598648071289062,2.008466958999634,0.04907667636871338
1773230422722129200,6.340129150390625,9.599631309509277,2.003615617752075,0.05468929186463356
1773230422738119400,6.356119384765625,9.601967811584473,1.9921339750289917,0.06332231312990189
1773230422754113000,6.372113037109375,9.602411270141602,1.9899309873580933,0.06528167426586151
1773230422770103300,6.388103271484375,9.600146293640137,2.0008654594421387,0.06420128792524338
1773230422786125800,6.404125732421875,9.598286628723145,2.0097200870513916,0.06561189144849777
1773230422802116900,6.420116943359375,9.597854614257812,2.0117909908294678,0.06533022224903107
1773230422818108200,6.436108154296875,9.597328186035156,2.014338970184326,0.06412913650274277
1773230422834129400,6.45212939453125,9.596861839294434,2.0165796279907227,0.06361943483352661
1773230422850120000,6.468119873046875,9.5978422164917,2.011796712875366,0.06693962961435318
1773230422866111700,6.48411181640625,9.599747657775879,2.00248384475708,0.0727124810218811
1773230422882134500,6.500134521484375,9.60140323638916,1.9944664239883423,0.07447916269302368
1773230422898125300,6.516125244140625,9.602375984191895,1.9898951053619385,0.07129029929637909
1773230422914116400,6.532116455078125,9.602819442749023,1.9879040718078613,0.06698935478925705
1773230422930107000,6.54810693359375,9.603013038635254,1.9870067834854126,0.06587503105401993
1773230422946126300,6.564126220703125,9.60312271118164,1.9864476919174194,0.06675488501787186
1773230422962119000,6.580118896484375,9.603342056274414,1.985398292541504,0.06642989069223404
1773230422978110200,6.596110107421875,9.603644371032715,1.9838769435882568,0.06804484874010086
1773230422994133500,6.612133544921875,9.60417366027832,1.9811735153198242,0.07208221405744553
1773230423010123800,6.628123779296875,9.605133056640625,1.9764410257339478,0.07410601526498795
1773230423026115300,6.644115234375,9.606575012207031,1.9692715406417847,0.07799874991178513
1773230423042104000,6.66010400390625,9.608179092407227,1.96113920211792,0.08503047376871109
1773230423058127400,6.67612744140625,9.609007835388184,1.956846833229065,0.0900048315525055
1773230423074120000,6.692119873046875,9.609034538269043,1.9568649530410767,0.08675233274698257
1773230423090110500,6.7081103515625,9.608651161193848,1.959004521369934,0.08069095015525818
1773230423106132700,6.7241328125,9.608248710632324,1.9611598253250122,0.07614197582006454
1773230423122122800,6.740122802734375,9.608586311340332,1.9595818519592285,0.0741211399435997
1773230423138114800,6.75611474609375,9.610107421875,1.9522182941436768,0.07115450501441956
1773230423154107000,6.77210693359375,9.611259460449219,1.9467052221298218,0.06642334908246994
1773230423170127600,6.788127685546875,9.610981941223145,1.9482773542404175,0.060251347720623016
1773230423186119000,6.804118896484375,9.609759330749512,1.9545620679855347,0.050984665751457214
1773230423202110000,6.82010986328125,9.607519149780273,1.9656368494033813,0.04726115241646767
1773230423218132000,6.836132080078125,9.604947090148926,1.9779661893844604,0.05500837042927742
1773230423234121000,6.852120849609375,9.6025390625,1.9891711473464966,0.06956062465906143
1773230423250114000,6.868114013671875,9.60089111328125,1.9970842599868774,0.07031542807817459
1773230423266104800,6.884104736328125,9.599359512329102,2.0046474933624268,0.06381580233573914
1773230423282126000,6.9001259765625,9.598005294799805,2.0110297203063965,0.06670202314853668
1773230423298117000,6.9161171875,9.597134590148926,2.014967203140259,0.07280928641557693
1773230423314108200,6.932108154296875,9.596389770507812,2.0185306072235107,0.0723116397857666
1773230423330131200,6.948131103515625,9.594328880310059,2.0285401344299316,0.06541392207145691
1773230423346122000,6.9641220703125,9.589871406555176,2.0497710704803467,0.05641494691371918
1773230423362112800,6.98011279296875,9.5850191116333,2.0724692344665527,0.05174388736486435
1773230423378105600,6.996105712890625,9.582297325134277,2.085082530975342,0.04885989427566528
1773230423394123800,7.012123779296875,9.581734657287598,2.0878183841705322,0.04187993332743645
1773230423410117000,7.0281171875,9.58121109008789,2.0903637409210205,0.034147076308727264
1773230423426108200,7.044108154296875,9.582310676574707,2.0852768421173096,0.0365084707736969
1773230423442130000,7.0601298828125,9.585001945495605,2.0728845596313477,0.03566822037100792
1773230423466114800,7.08411474609375,9.585026741027832,2.072904109954834,0.026930969208478928
1773230423482108400,7.1001083984375,9.582681655883789,2.083739995956421,0.025137875229120255
1773230423498129000,7.11612890625,9.581005096435547,2.0915205478668213,0.016336984932422638
1773230423514119700,7.13211962890625,9.579984664916992,2.09625506401062,0.0016388167859986424
1773230423530113500,7.148113525390625,9.57994556427002,2.0964183807373047,-0.008199380710721016
1773230423546103800,7.164103759765625,9.581817626953125,2.087815284729004,-0.013179215602576733
1773230423562125000,7.180125,9.58574390411377,2.069667339324951,-0.019352460280060768
1773230423578116600,7.19611669921875,9.589497566223145,2.0521602630615234,-0.023505013436079025
1773230423594107000,7.21210693359375,9.59154224395752,2.0426080226898193,-0.021233197301626205
1773230423610128600,7.228128662109375,9.592324256896973,2.038952350616455,-0.019081169739365578
1773230423626119000,7.244118896484375,9.592422485351562,2.038505792617798,-0.01773209311068058
1773230423642111000,7.260111083984375,9.593257904052734,2.0345616340637207,-0.018325675278902054
1773230423658133000,7.276133056640625,9.594762802124023,2.0274338722229004,-0.020600633695721626
1773230423674123300,7.292123291015625,9.595598220825195,2.0234055519104004,-0.02650090865790844
1773230423690115600,7.308115478515625,9.595817565917969,2.0223867893218994,-0.025019656866788864
1773230423706108000,7.32410791015625,9.59703540802002,2.016679525375366,-0.017402714118361473
1773230423722127600,7.340127685546875,9.598939895629883,2.007624387741089,-0.013085107319056988
1773230423738119200,7.356119140625,9.60013484954834,2.001903533935547,-0.013505707494914532
1773230423754112000,7.372112060546875,9.599597930908203,2.004476547241211,-0.013393040746450424
1773230423770132200,7.38813232421875,9.598223686218262,2.0110487937927246,-0.013213482685387135
1773230423786123800,7.404123779296875,9.597801208496094,2.0130605697631836,-0.013300832360982895
1773230423802115800,7.42011572265625,9.598711967468262,2.0087316036224365,-0.010845036245882511
1773230423818107000,7.43610693359375,9.599617004394531,2.004399299621582,-0.01135064847767353
1773230423834126000,7.4521259765625,9.599255561828613,2.006088972091675,-0.017328042536973953
1773230423850119700,7.46811962890625,9.598319053649902,2.0105385780334473,-0.01985507644712925
1773230423866110500,7.4841103515625,9.598057746887207,2.0118319988250732,-0.014653562568128109
1773230423882132000,7.500132080078125,9.598346710205078,2.010476589202881,-0.010137217119336128
1773230423898122200,7.516122314453125,9.598310470581055,2.0106570720672607,-0.008798625320196152
1773230423914113800,7.53211376953125,9.597392082214355,2.0150294303894043,-0.009912067092955112
1773230423930106400,7.5481064453125,9.596181869506836,2.0207812786102295,-0.011041180230677128
1773230423946126600,7.564126708984375,9.595820426940918,2.022507667541504,-0.008589951321482658
1773230423962119000,7.580118896484375,9.596807479858398,2.017836093902588,-0.0045743221417069435
1773230423978110500,7.5961103515625,9.597305297851562,2.0154619216918945,-0.0052647157572209835
1773230423994130700,7.612130615234375,9.595996856689453,2.0216803550720215,-0.00593607546761632
1773230424010122800,7.628122802734375,9.594992637634277,2.02644944190979,-0.002107676351442933
1773230424026113800,7.64411376953125,9.595211029052734,2.025414228439331,0.001227678614668548
1773230424042104800,7.660104736328125,9.595499038696289,2.0240471363067627,-0.0037896381691098213
1773230424058127000,7.676127197265625,9.595921516418457,2.02203369140625,-0.007023907266557217
1773230424074116400,7.692116455078125,9.59783935546875,2.012921094894409,-0.0035414721351116896
1773230424090108400,7.7081083984375,9.600934028625488,1.998112678527832,-0.0004501183866523206
1773230424106129200,7.724129150390625,9.603867530822754,1.983962059020996,0.0016227789456024766
1773230424122121700,7.740121826171875,9.606003761291504,1.9735902547836304,0.005454575642943382
1773230424138113300,7.75611328125,9.609386444091797,1.957034707069397,0.009742080233991146
1773230424154104600,7.7721044921875,9.614377975463867,1.9323261976242065,0.01512391958385706
1773230424170125800,7.788125732421875,9.620003700256348,1.9041037559509277,0.017370164394378662
1773230424186115300,7.804115234375,9.625869750976562,1.8742538690567017,0.013772212900221348
1773230424202107000,7.82010693359375,9.632856369018555,1.838036298751831,0.009450513869524002
1773230424218131000,7.836130859375,9.639769554138184,1.8014414310455322,0.0061424849554896355
1773230424234120200,7.8521201171875,9.645358085632324,1.7712798118591309,0.00393565883859992
1773230424250112000,7.868112060546875,9.649947166442871,1.7461073398590088,0.0042886738665401936
1773230424266103300,7.884103271484375,9.65531063079834,1.7161823511123657,0.009010952897369862
1773230424282125000,7.900125,9.660117149353027,1.6888545751571655,0.017133396118879318
1773230424298115600,7.916115478515625,9.663006782531738,1.6722272634506226,0.01847776025533676
1773230424314108200,7.932108154296875,9.664294242858887,1.6647992134094238,0.015623357146978378
1773230424330129200,7.948129150390625,9.666093826293945,1.6543587446212769,0.010223288089036942
1773230424346120400,7.964120361328125,9.670324325561523,1.62943434715271,0.013200696557760239
1773230424362110500,7.9801103515625,9.674559593200684,1.6040136814117432,0.02069064974784851
1773230424378102800,7.996102783203125,9.675728797912598,1.596941590309143,0.021324746310710907
1773230424394123300,8.012123291015625,9.675168991088867,1.6004010438919067,0.014393705874681473
1773230424410115600,8.028115478515625,9.67546558380127,1.5986464023590088,0.008643544279038906
1773230424426104600,8.0441044921875,9.676980018615723,1.5894718170166016,0.005261464510113001
1773230424442129200,8.060129150390624,9.678766250610352,1.578560709953308,0.0026584055740386248
1773230424458118400,8.076118408203126,9.679713249206543,1.5727486610412598,-0.0010962708620354533
1773230424474110200,8.092110107421876,9.679418563842773,1.5745524168014526,-0.005184599664062262
1773230424490102500,8.1081025390625,9.67817211151123,1.5821985006332397,-0.004188574384897947
1773230424506124000,8.1241240234375,9.676966667175293,1.5895525217056274,0.0036983797326684
1773230424522115600,8.140115478515625,9.676493644714355,1.592421054840088,0.007387187797576189
1773230424538105900,8.15610595703125,9.676758766174316,1.5908253192901611,0.0035765799693763256
1773230424554128600,8.172128662109374,9.677421569824219,1.586787223815918,0.0009160189074464142
1773230424570119000,8.188118896484376,9.679049491882324,1.5768146514892578,0.007351166568696499
1773230424586110500,8.2041103515625,9.682242393493652,1.55707585811615,0.00841660425066948
1773230424602102000,8.22010205078125,9.685586929321289,1.536159634590149,-0.0013521817745640874
1773230424618122200,8.236122314453125,9.68637466430664,1.5311810970306396,-0.004768127575516701
1773230424634113800,8.25211376953125,9.685746192932129,1.5351557731628418,-0.0006012903759256005
1773230424650104300,8.268104248046875,9.684942245483398,1.540211796760559,-0.005328611005097628
1773230424666124300,8.284124267578125,9.683758735656738,1.5475027561187744,-0.021063903346657753
1773230424682116400,8.300116455078125,9.68253231048584,1.5549942255020142,-0.03062109276652336
1773230424698109200,8.316109130859376,9.68249797821045,1.5552622079849243,-0.027881912887096405
1773230424714099700,8.332099609375,9.683640480041504,1.5481642484664917,-0.026250075548887253
1773230424730122800,8.348122802734375,9.684446334838867,1.5430692434310913,-0.028847141191363335
1773230424746114000,8.364114013671875,9.68416690826416,1.5448628664016724,-0.026574302464723587
1773230424762104300,8.380104248046875,9.683719635009766,1.547761082649231,-0.019979359582066536
1773230424778125800,8.396125732421876,9.683428764343262,1.549626350402832,-0.015755167230963707
1773230424794116600,8.41211669921875,9.68239688873291,1.5560868978500366,-0.01308444980531931
1773230424810109000,8.42810888671875,9.681036949157715,1.5645171403884888,-0.013816709630191326
1773230424826131000,8.444130859375,9.680851936340332,1.5656152963638306,-0.01840783655643463
1773230424842121200,8.460121337890625,9.682467460632324,1.5555553436279297,-0.02135583572089672
1773230424858113300,8.47611328125,9.684761047363281,1.541276216506958,-0.01614997535943985
1773230424874103300,8.492103271484375,9.686954498291016,1.527480125427246,-0.009827383793890476
1773230424890125300,8.508125244140626,9.688891410827637,1.51513671875,-0.010975677520036697
1773230424906114800,8.52411474609375,9.689876556396484,1.5087523460388184,-0.018854958936572075
1773230424922108200,8.540108154296876,9.68941593170166,1.511629581451416,-0.024170346558094025
1773230424938129400,8.55612939453125,9.688345909118652,1.5184578895568848,-0.02524462342262268
1773230424954119400,8.572119384765625,9.6879301071167,1.5211070775985718,-0.02528681978583336
1773230424970111500,8.588111572265625,9.688394546508789,1.518140196800232,-0.025682978332042694
1773230424986104300,8.604104248046875,9.689002990722656,1.5142319202423096,-0.02666921354830265
1773230425002124500,8.62012451171875,9.689432144165039,1.5114283561706543,-0.02941873110830784
1773230425018116400,8.636116455078126,9.690013885498047,1.5076512098312378,-0.03164207190275192
1773230425034106600,8.652106689453126,9.691189765930176,1.5001413822174072,-0.028213702142238617
1773230425050129200,8.668129150390625,9.692286491394043,1.4931656122207642,-0.021008338779211044
1773230425066120400,8.684120361328125,9.692730903625488,1.4902998208999634,-0.019037658348679543
1773230425082112000,8.700112060546875,9.693376541137695,1.4860515594482422,-0.021958552300930023
1773230425098102300,8.716102294921875,9.694833755493164,1.4764347076416016,-0.02701970748603344
1773230425114124500,8.73212451171875,9.696017265319824,1.4685642719268799,-0.030959129333496094
1773230425130115300,8.748115234375,9.696710586547852,1.4640750885009766,-0.026092655956745148
1773230425146105600,8.764105712890625,9.696666717529297,1.4644761085510254,-0.018755920231342316
1773230425162128600,8.780128662109375,9.695540428161621,1.4718925952911377,-0.02060074359178543
1773230425178119700,8.79611962890625,9.694634437561035,1.4777809381484985,-0.024649618193507195
1773230425194111700,8.81211181640625,9.694657325744629,1.4776227474212646,-0.02548931911587715
1773230425210101200,8.828101318359375,9.695809364318848,1.4701157808303833,-0.020751623436808586
1773230425226124000,8.8441240234375,9.697538375854492,1.4587284326553345,-0.01612582616508007
1773230425242114000,8.860114013671875,9.69845199584961,1.4526485204696655,-0.0154275419190526
1773230425258105000,8.87610498046875,9.69804859161377,1.4553287029266357,-0.01588931493461132
1773230425274128100,8.892128173828125,9.69773006439209,1.45745849609375,-0.015211707912385464
1773230425290119400,8.908119384765625,9.697654724121094,1.4579291343688965,-0.018301893025636673
1773230425306110000,8.92410986328125,9.697131156921387,1.4612458944320679,-0.028209319338202477
1773230425322101800,8.940101806640625,9.696433067321777,1.465773105621338,-0.033022016286849976
1773230425338122500,8.95612255859375,9.697181701660156,1.4609174728393555,-0.027565212920308113
1773230425354114000,8.972114013671876,9.698770523071289,1.450365662574768,-0.026143327355384827
1773230425370106400,8.9881064453125,9.69876480102539,1.4503241777420044,-0.03007584437727928
1773230425386124300,9.004124267578124,9.697099685668945,1.4614096879959106,-0.030502507463097572
1773230425402118400,9.020118408203125,9.696077346801758,1.4682167768478394,-0.02860577031970024
1773230425418108200,9.036108154296874,9.696672439575195,1.4643553495407104,-0.024473346769809723
1773230425434098400,9.052098388671874,9.698027610778809,1.4553736448287964,-0.022937770932912827
1773230425450122500,9.06812255859375,9.699377059936523,1.4463481903076172,-0.023381132632493973
1773230425466110700,9.08411083984375,9.700189590454102,1.4409593343734741,-0.018497304990887642
1773230425482103600,9.100103515625,9.699949264526367,1.442611575126648,-0.015645204111933708
1773230425498125600,9.11612548828125,9.69918441772461,1.44775390625,-0.014883644878864288
1773230425514116600,9.13211669921875,9.698806762695312,1.4502745866775513,-0.015061010606586933
1773230425530108200,9.148108154296875,9.698724746704102,1.4507800340652466,-0.01868891902267933
1773230425546100000,9.164099853515625,9.698307991027832,1.4534631967544556,-0.025366460904479027
1773230425562121500,9.18012158203125,9.697891235351562,1.4560894966125488,-0.03309296444058418
1773230425578112300,9.1961123046875,9.698222160339355,1.4538155794143677,-0.0360497310757637
1773230425594104800,9.212104736328126,9.699250221252441,1.4469633102416992,-0.0350627638399601
1773230425610126000,9.2281259765625,9.700071334838867,1.4414204359054565,-0.036143142729997635
1773230425626117000,9.2441171875,9.699725151062012,1.4436111450195312,-0.04138345643877983
1773230425642107400,9.260107421875,9.698759078979492,1.4498831033706665,-0.047949790954589844
1773230425658130000,9.2761298828125,9.698136329650879,1.4537793397903442,-0.05526168644428253
1773230425674120700,9.29212060546875,9.698174476623535,1.4531716108322144,-0.06404504179954529
1773230425690113000,9.308113037109376,9.699013710021973,1.4472417831420898,-0.07084251940250397
1773230425706103300,9.324103271484375,9.700675010681152,1.4359965324401855,-0.07219846546649933
1773230425722125600,9.34012548828125,9.702436447143555,1.4241031408309937,-0.07103780657052994
1773230425738115600,9.356115478515624,9.70417308807373,1.4122487306594849,-0.07045403122901917
1773230425754105900,9.37210595703125,9.707112312316895,1.3921042680740356,-0.06640276312828064
1773230425770129000,9.38812890625,9.713409423828125,1.3479737043380737,-0.05511486157774925
1773230425786121200,9.404121337890626,9.721988677978516,1.2852613925933838,-0.037945281714200974
1773230425802112300,9.4201123046875,9.730132102966309,1.2224799394607544,-0.02151128277182579
1773230425818102500,9.4361025390625,9.737275123596191,1.164345383644104,-0.012839315459132195
1773230425834123500,9.45212353515625,9.743440628051758,1.1115971803665161,-0.010292736813426018
1773230425850116000,9.4681162109375,9.748096466064453,1.0699536800384521,-0.013882541097700596
1773230425866107000,9.48410693359375,9.751818656921387,1.0354018211364746,-0.019249146804213524
1773230425882097200,9.50009716796875,9.7555513381958,0.9996810555458069,-0.015835044905543327
1773230425898120700,9.51612060546875,9.758824348449707,0.9672747254371643,-0.010408435016870499
1773230425914111000,9.532111083984375,9.760808944702148,0.947053849697113,-0.009147785604000092
1773230425930102000,9.54810205078125,9.76220703125,0.9325316548347473,-0.009662695229053497
1773230425946123000,9.564123046875,9.763922691345215,0.914269745349884,-0.017665695399045944
1773230425962114600,9.580114501953124,9.765782356262207,0.8937578201293945,-0.03279036283493042
1773230425978105000,9.59610498046875,9.767526626586914,0.8739373683929443,-0.045353200286626816
1773230425994098400,9.612098388671875,9.769092559814453,0.8553668260574341,-0.059691332280635834
1773230426010119200,9.628119140625,9.76966381072998,0.8478425741195679,-0.07231070846319199
1773230426026111500,9.644111572265626,9.769515991210938,0.8495704531669617,-0.07200096547603607
1773230426042100700,9.660100830078125,9.76924991607666,0.8528773784637451,-0.06881793588399887
1773230426058123800,9.676123779296875,9.76870346069336,0.8590862154960632,-0.06920894235372543
1773230426074112000,9.692112060546876,9.766959190368652,0.8782119154930115,-0.07501386851072311
1773230426090105000,9.70810498046875,9.76357364654541,0.9138543009757996,-0.08884046226739883
1773230426106127600,9.724127685546875,9.75894546508789,0.960835874080658,-0.10088953375816345
1773230426122118000,9.740117919921875,9.75339126586914,1.0155974626541138,-0.10157553106546402
1773230426138110500,9.7561103515625,9.747220993041992,1.073002815246582,-0.10363487154245377
1773230426154100000,9.772099853515625,9.739458084106445,1.1406316757202148,-0.11093580722808838
1773230426170122000,9.7881220703125,9.729515075683594,1.2213915586471558,-0.12300249934196472
1773230426186113000,9.804113037109374,9.717458724975586,1.3125824928283691,-0.13604503870010376
1773230426202103800,9.820103759765624,9.703341484069824,1.4123140573501587,-0.14460588991641998
1773230426218126600,9.836126708984375,9.68837833404541,1.5110801458358765,-0.14951522648334503
1773230426234116400,9.852116455078125,9.675322532653809,1.5913947820663452,-0.16119223833084106
1773230426250109400,9.868109375,9.662847518920898,1.6625062227249146,-0.1893063634634018
1773230426266099200,9.88409912109375,9.649974822998047,1.7302495241165161,-0.23370487987995148
1773230426282122200,9.900122314453125,9.636141777038574,1.8016048669815063,-0.2633672058582306
1773230426298111700,9.91611181640625,9.623505592346191,1.8666762113571167,-0.2721056044101715
1773230426314104600,9.9321044921875,9.617619514465332,1.8963916301727295,-0.27471718192100525
1773230426330094800,9.9480947265625,9.619500160217285,1.8878084421157837,-0.26795047521591187
1773230426346116000,9.9641162109375,9.623557090759277,1.8694630861282349,-0.25031378865242004
1773230426362108200,9.980108154296875,9.62848949432373,1.8466548919677734,-0.22903381288051605
1773230426378099700,9.996099609375,9.632742881774902,1.8253045082092285,-0.2211834341287613
1773230426394121500,10.01212158203125,9.633126258850098,1.8239363431930542,-0.21567772328853607
1773230426410110500,10.0281103515625,9.630831718444824,1.836865782737732,-0.20830444991588593
1773230426426104000,10.04410400390625,9.627796173095703,1.8530628681182861,-0.20513825118541718
1773230426442125600,10.06012548828125,9.624428749084473,1.869807243347168,-0.21115361154079437
1773230426458116400,10.076116455078125,9.620686531066895,1.889020323753357,-0.21067166328430176
1773230426474107000,10.09210693359375,9.618372917175293,1.9016705751419067,-0.2022942453622818
1773230426490098700,10.1080986328125,9.61882209777832,1.8997681140899658,-0.19884586334228516
1773230426506119700,10.12411962890625,9.620903015136719,1.8890751600265503,-0.19999395310878754
1773230426522111500,10.140111572265624,9.625035285949707,1.8679206371307373,-0.19986991584300995
1773230426538101800,10.156101806640624,9.63074016571045,1.838321566581726,-0.1994885802268982
1773230426554125300,10.172125244140625,9.637077331542969,1.8045755624771118,-0.20158645510673523
1773230426570116000,10.1881162109375,9.6433687210083,1.770056962966919,-0.20669284462928772
1773230426586105900,10.20410595703125,9.648751258850098,1.740575909614563,-0.20588667690753937
1773230426602096400,10.220096435546875,9.652318000793457,1.7215027809143066,-0.19893412292003632
1773230426618120000,10.236119873046874,9.652801513671875,1.7191245555877686,-0.19601736962795258
1773230426634111200,10.252111328125,9.65068244934082,1.7300113439559937,-0.20440329611301422
1773230426650101800,10.268101806640624,9.648420333862305,1.7418638467788696,-0.21045003831386566
1773230426666121200,10.284121337890625,9.647107124328613,1.7500699758529663,-0.20239342749118805
1773230426682114000,10.300114013671875,9.644574165344238,1.76520836353302,-0.1913372129201889
1773230426698105000,10.31610498046875,9.63998794555664,1.790679931640625,-0.18566428124904633
1773230426714096400,10.332096435546875,9.633025169372559,1.8279659748077393,-0.18373912572860718
1773230426730116600,10.34811669921875,9.624516487121582,1.8727810382843018,-0.17823182046413422
1773230426746110700,10.36411083984375,9.616737365722656,1.912780523300171,-0.17323529720306396
1773230426762101200,10.380101318359374,9.60957145690918,1.9485814571380615,-0.17195001244544983
1773230426778123300,10.396123291015625,9.60274600982666,1.9816490411758423,-0.17530588805675507
1773230426794114000,10.412114013671875,9.596985816955566,2.0090339183807373,-0.17895624041557312
1773230426810105900,10.42810595703125,9.592866897583008,2.0284039974212646,-0.18128857016563416
1773230426826096000,10.44409619140625,9.589157104492188,2.045285940170288,-0.1877625733613968
1773230426842117000,10.4601171875,9.584878921508789,2.064443588256836,-0.19640861451625824
1773230426858109200,10.476109130859374,9.58108139038086,2.0813040733337402,-0.2035599946975708
1773230426874099700,10.492099609375,9.578161239624023,2.0941789150238037,-0.20889192819595337
1773230426890122500,10.50812255859375,9.575784683227539,2.104215383529663,-0.21683453023433685
1773230426906113000,10.524113037109375,9.573959350585938,2.111607789993286,-0.22541530430316925
1773230426922103600,10.540103515625,9.572355270385742,2.1179304122924805,-0.23404468595981598
1773230426938126600,10.556126708984374,9.57219123840332,2.118762969970703,-0.23321472108364105
1773230426954118000,10.572117919921874,9.574820518493652,2.1077678203582764,-0.22474101185798645
1773230426970107400,10.588107421875,9.578412055969238,2.092420816421509,-0.21488922834396362
1773230426986098000,10.604097900390625,9.581716537475586,2.078404188156128,-0.2033022940158844
1773230427002121000,10.620120849609375,9.585695266723633,2.0613696575164795,-0.1886783391237259
1773230427018113000,10.636113037109375,9.59009838104248,2.0417261123657227,-0.17815551161766052
1773230427034103000,10.65210302734375,9.594564437866211,2.020951986312866,-0.1745327264070511
1773230427050095400,10.668095458984375,9.598444938659668,2.0027878284454346,-0.17053835093975067
1773230427066118000,10.684117919921874,9.602387428283691,1.9842323064804077,-0.165383979678154
1773230427082108000,10.70010791015625,9.60728645324707,1.9605015516281128,-0.16387231647968292
1773230427098099500,10.716099365234374,9.611574172973633,1.9391975402832031,-0.16596202552318573
1773230427114120400,10.732120361328125,9.613011360168457,1.9319275617599487,-0.16750533878803253
1773230427130112300,10.7481123046875,9.611692428588867,1.938197135925293,-0.17074261605739594
1773230427146103000,10.76410302734375,9.609529495239258,1.9481476545333862,-0.17902341485023499
1773230427162125300,10.780125244140624,9.607614517211914,1.956954002380371,-0.1856321543455124
1773230427178115300,10.796115234375,9.605264663696289,1.9683643579483032,-0.1865742951631546
1773230427194105300,10.812105224609375,9.601770401000977,1.9853609800338745,-0.18639422953128815
1773230427210099200,10.82809912109375,9.597230911254883,2.006715774536133,-0.191406711935997
1773230427226121500,10.84412158203125,9.590802192687988,2.036345958709717,-0.20049810409545898
1773230427242111000,10.860111083984375,9.583795547485352,2.068753480911255,-0.20372195541858673
1773230427258102500,10.8761025390625,9.578683853149414,2.0923547744750977,-0.20309962332248688
1773230427274125300,10.892125244140624,9.575220108032227,2.1075050830841064,-0.20967240631580353
1773230427290116400,10.908116455078124,9.571778297424316,2.1220149993896484,-0.2202136367559433
1773230427306105900,10.92410595703125,9.569926261901855,2.129828691482544,-0.22525762021541595
1773230427322095900,10.940095947265625,9.569690704345703,2.130376100540161,-0.22998523712158203
1773230427338117000,10.9561171875,9.56923770904541,2.1314427852630615,-0.2388295978307724
1773230427354110200,10.972110107421875,9.567750930786133,2.1379024982452393,-0.24062581360340118
1773230427370101800,10.988101806640625,9.567038536071777,2.141322374343872,-0.23852211236953735
1773230427386124000,11.0041240234375,9.567330360412598,2.139876127243042,-0.2398044317960739
1773230427402114000,11.020114013671876,9.568450927734375,2.134702682495117,-0.2412109225988388
1773230427418106400,11.0361064453125,9.570025444030762,2.127993583679199,-0.2380090206861496
1773230427434097700,11.05209765625,9.572442054748535,2.118288993835449,-0.22713987529277802
1773230427450119200,11.068119140625,9.576136589050293,2.1029231548309326,-0.21382185816764832
1773230427466110500,11.0841103515625,9.580559730529785,2.0835013389587402,-0.20561127364635468
1773230427482099200,11.10009912109375,9.584415435791016,2.065838098526001,-0.20416510105133057
1773230427498135000,11.116135009765625,9.587708473205566,2.05080246925354,-0.20108306407928467
1773230427514127400,11.13212744140625,9.591724395751953,2.0324432849884033,-0.19589737057685852
1773230427530117000,11.1481171875,9.595934867858887,2.012807846069336,-0.19240647554397583
1773230427546109400,11.164109375,9.599078178405762,1.9975160360336304,-0.19497878849506378
1773230427562129700,11.180129638671875,9.600320816040039,1.9911112785339355,-0.19928832352161407
1773230427578119700,11.19611962890625,9.600194931030273,1.9916346073150635,-0.2000783532857895
1773230427594112800,11.21211279296875,9.599838256835938,1.9933662414550781,-0.199935644865036
1773230427610134500,11.228134521484375,9.599599838256836,1.9943253993988037,-0.20181474089622498
1773230427626125000,11.244125,9.598934173583984,1.9972695112228394,-0.20438438653945923
1773230427642115800,11.26011572265625,9.597280502319336,2.005377769470215,-0.2025783807039261
1773230427658138000,11.27613818359375,9.593953132629395,2.021968126296997,-0.19516853988170624
1773230427674130200,11.292130126953126,9.589822769165039,2.042332887649536,-0.1859322488307953
1773230427690118400,11.308118408203125,9.58505630493164,2.0649871826171875,-0.1814247965812683
1773230427706110700,11.32411083984375,9.579465866088867,2.0909218788146973,-0.17962388694286346
1773230427722134800,11.340134765625,9.57366943359375,2.1173346042633057,-0.17926472425460815
1773230427738125000,11.356125,9.568146705627441,2.142725706100464,-0.17229481041431427
1773230427754114000,11.372114013671874,9.563545227050781,2.1638967990875244,-0.1629037708044052
1773230427770107100,11.388107177734375,9.560430526733398,2.178144693374634,-0.155689999461174
1773230427786128400,11.40412841796875,9.559338569641113,2.1833713054656982,-0.149419367313385
1773230427802119200,11.420119140625,9.561227798461914,2.175666570663452,-0.14065010845661163
1773230427818112300,11.4361123046875,9.564224243164062,2.162588357925415,-0.13858941197395325
1773230427834133800,11.4521337890625,9.56496524810791,2.1590030193328857,-0.14332516491413116
1773230427850123500,11.46812353515625,9.563672065734863,2.16471791267395,-0.14339396357536316
1773230427866115600,11.484115478515625,9.562922477722168,2.168246030807495,-0.1400160789489746
1773230427882136800,11.50013671875,9.562726020812988,2.1689608097076416,-0.14237886667251587
1773230427898128600,11.516128662109375,9.563779830932617,2.1642730236053467,-0.14288349449634552
1773230427914119700,11.53211962890625,9.567071914672852,2.1499416828155518,-0.13886266946792603
1773230427930111500,11.548111572265626,9.571507453918457,2.1302990913391113,-0.13586276769638062
1773230427946132700,11.5641328125,9.575470924377441,2.112485885620117,-0.13473807275295258
1773230427962122800,11.580122802734374,9.578057289123535,2.101141929626465,-0.1280973106622696
1773230427978114600,11.596114501953124,9.580979347229004,2.0884058475494385,-0.1173577830195427
1773230427994135000,11.612135009765625,9.583614349365234,2.076673984527588,-0.1102353110909462
1773230428010128100,11.628128173828125,9.583929061889648,2.075185537338257,-0.11090948432683945
1773230428026119000,11.644118896484375,9.582780838012695,2.0805015563964844,-0.11054028570652008
1773230428042110000,11.66010986328125,9.583038330078125,2.079465627670288,-0.10765425115823746
1773230428058132500,11.676132568359375,9.5840482711792,2.074866771697998,-0.10643435269594193
1773230428074122200,11.692122314453124,9.584396362304688,2.073320150375366,-0.10527276247739792
1773230428090114300,11.7081142578125,9.584033966064453,2.0750892162323,-0.10335483402013779
1773230428106136600,11.724136474609375,9.582852363586426,2.080484390258789,-0.10454235970973969
1773230428122124300,11.740124267578125,9.581160545349121,2.088056802749634,-0.10851294547319412
1773230428138118100,11.7561181640625,9.580429077148438,2.0912888050079346,-0.11083335429430008
1773230428154108200,11.772108154296875,9.579519271850586,2.0952773094177246,-0.11411438137292862
1773230428170130200,11.788130126953124,9.57718276977539,2.1059093475341797,-0.11446075141429901
1773230428186122500,11.80412255859375,9.574430465698242,2.118215322494507,-0.1175978034734726
1773230428202113500,11.820113525390624,9.571159362792969,2.132223606109619,-0.130071759223938
1773230428218135000,11.836135009765625,9.567838668823242,2.146345615386963,-0.14155583083629608
1773230428234125600,11.85212548828125,9.565339088439941,2.1573173999786377,-0.14374683797359467
1773230428250117600,11.86811767578125,9.563750267028809,2.1645443439483643,-0.14076270163059235
1773230428266109700,11.884109619140625,9.564821243286133,2.159959077835083,-0.13840462267398834
1773230428282130400,11.90013037109375,9.566526412963867,2.1521058082580566,-0.14284969866275787
1773230428298119200,11.916119140625,9.566842079162598,2.1502349376678467,-0.1496705710887909
1773230428314112000,11.932112060546874,9.566787719726562,2.1508424282073975,-0.14434856176376343
1773230428330135800,11.9481357421875,9.567615509033203,2.147731304168701,-0.13556210696697235
1773230428346125600,11.96412548828125,9.568694114685059,2.142975091934204,-0.13464348018169403
1773230428362117000,11.9801171875,9.570084571838379,2.136674165725708,-0.13600216805934906
1773230428378108200,11.996108154296875,9.57262134552002,2.1257846355438232,-0.12785762548446655
1773230428394128600,12.012128662109374,9.575864791870117,2.1118550300598145,-0.1151634156703949
1773230428410121000,12.028120849609374,9.577762603759766,2.103349208831787,-0.11297701299190521
1773230428426111000,12.044111083984374,9.577733039855957,2.1031503677368164,-0.11909421533346176
1773230428442134500,12.060134521484375,9.578325271606445,2.100222110748291,-0.12305384129285812
1773230428458124300,12.076124267578125,9.58111572265625,2.087733030319214,-0.11825408041477203
1773230428474116600,12.09211669921875,9.58513355255127,2.0693483352661133,-0.11582082509994507
1773230428490108200,12.108108154296875,9.587996482849121,2.0559656620025635,-0.11715126782655716
1773230428506128400,12.12412841796875,9.588824272155762,2.052018165588379,-0.11851261556148529
1773230428522121000,12.140120849609374,9.588554382324219,2.0532586574554443,-0.11893877387046814
1773230428538113000,12.156113037109375,9.5874605178833,2.0582644939422607,-0.12057064473628998
1773230428554132500,12.172132568359375,9.587138175964355,2.0596797466278076,-0.12200766056776047
1773230428570123800,12.188123779296875,9.588410377502441,2.053727388381958,-0.1223120465874672
1773230428586115800,12.20411572265625,9.589242935180664,2.0498526096343994,-0.12211272865533829
1773230428602107600,12.220107666015625,9.58796215057373,2.0559844970703125,-0.11958364397287369
1773230428618128600,12.236128662109374,9.585175514221191,2.0689709186553955,-0.11899974197149277
1773230428634116900,12.252116943359376,9.581693649291992,2.0850932598114014,-0.11804237216711044
1773230428650111000,12.268111083984374,9.578493118286133,2.099825620651245,-0.11655370146036148
1773230428666132200,12.28413232421875,9.575631141662598,2.113086462020874,-0.11196542531251907
1773230428682122800,12.300122802734375,9.573269844055176,2.123969078063965,-0.107939712703228
1773230428698115300,12.316115234375,9.572182655334473,2.1288444995880127,-0.10830876976251602
1773230428714104800,12.332104736328125,9.57337474822998,2.1234350204467773,-0.10909166187047958
1773230428730128000,12.3481279296875,9.575159072875977,2.1151673793792725,-0.11309841275215149
1773230428746118400,12.364118408203124,9.57464599609375,2.117170572280884,-0.11882581561803818
1773230428762109700,12.380109619140624,9.571990013122559,2.128828525543213,-0.12444668263196945
1773230428778131000,12.396130859375,9.567483901977539,2.148409605026245,-0.1340586394071579
1773230428794120400,12.412120361328125,9.563663482666016,2.164856433868408,-0.14185070991516113
1773230428810113000,12.428113037109375,9.562065124511719,2.1720123291015625,-0.14021405577659607
1773230428826136300,12.44413623046875,9.56223201751709,2.171398401260376,-0.1383519172668457
1773230428842128000,12.4601279296875,9.563112258911133,2.1674132347106934,-0.13996197283267975
1773230428858118400,12.476118408203124,9.564499855041504,2.161414384841919,-0.13787716627120972
1773230428874108400,12.4921083984375,9.567354202270508,2.1496753692626953,-0.12251085788011551
1773230428890131700,12.508131591796875,9.57115364074707,2.1338486671447754,-0.10049743205308914
1773230428906121500,12.52412158203125,9.57414436340332,2.121114730834961,-0.08379095792770386
1773230428922112300,12.5401123046875,9.576401710510254,2.1112070083618164,-0.07567377388477325
1773230428938136600,12.556136474609374,9.578583717346191,2.101442337036133,-0.07111136615276337
1773230428954126800,12.572126953125,9.580673217773438,2.0921125411987305,-0.06450911611318588
1773230428970118400,12.588118408203124,9.582653999328613,2.0831918716430664,-0.05869483947753906
1773230428986106400,12.6041064453125,9.583694458007812,2.078336477279663,-0.06079864501953125
1773230429002130000,12.6201298828125,9.583549499511719,2.078809976577759,-0.06720299273729324
1773230429018121700,12.636121826171875,9.58253288269043,2.0832505226135254,-0.0742790699005127
1773230429034112500,12.652112548828125,9.58061408996582,2.091813087463379,-0.08094382286071777
1773230429050135600,12.668135498046874,9.578230857849121,2.102597236633301,-0.08344835788011551
1773230429066127000,12.684127197265624,9.57629108428955,2.111463785171509,-0.08218362927436829
1773230429082117000,12.7001171875,9.575831413269043,2.113598585128784,-0.08079378306865692
1773230429098107000,12.71610693359375,9.57625961303711,2.1114888191223145,-0.0851190984249115
1773230429114130200,12.732130126953125,9.576748847961426,2.1089980602264404,-0.09161102026700974
1773230429130121700,12.748121826171875,9.577254295349121,2.106682062149048,-0.09205799549818039
1773230429146111200,12.764111328125,9.576915740966797,2.1083548069000244,-0.0889655128121376
1773230429162134800,12.780134765625,9.575825691223145,2.113184690475464,-0.0916794091463089
1773230429178125000,12.796125,9.575151443481445,2.1159722805023193,-0.09755612164735794
1773230429194116600,12.81211669921875,9.575333595275879,2.1148271560668945,-0.10434377193450928
1773230429210108200,12.828108154296874,9.575942039489746,2.1119399070739746,-0.10687603056430817
1773230429226129200,12.844129150390625,9.576017379760742,2.111544132232666,-0.1079779639840126
1773230429242121200,12.860121337890625,9.574819564819336,2.1167850494384766,-0.11154807358980179
1773230429258111700,12.87611181640625,9.572665214538574,2.1261751651763916,-0.11766202747821808
1773230429274103300,12.892103271484375,9.570822715759277,2.1344385147094727,-0.11792568862438202
1773230429290125600,12.90812548828125,9.570155143737793,2.1375551223754883,-0.11560940742492676
1773230429306115800,12.92411572265625,9.56972885131836,2.139491558074951,-0.11513327807188034
1773230429322107400,12.940107421875,9.569899559020996,2.1387133598327637,-0.11535909026861191
1773230429338128600,12.956128662109375,9.572325706481934,2.1280605792999268,-0.11102938652038574
1773230429354119000,12.972118896484375,9.576974868774414,2.10736346244812,-0.10468918830156326
1773230429370111700,12.98811181640625,9.581275939941406,2.087623357772827,-0.10669128596782684
1773230429386132500,13.004132568359376,9.583295822143555,2.0781397819519043,-0.11025741696357727
1773230429402123000,13.020123046875,9.582459449768066,2.0820345878601074,-0.10948044061660767
1773230429418113800,13.03611376953125,9.579626083374023,2.095384359359741,-0.10252057760953903
1773230429434106600,13.052106689453124,9.577179908752441,2.1067280769348145,-0.0985824316740036
1773230429450128100,13.068128173828125,9.573982238769531,2.1208529472351074,-0.10604893416166306
1773230429466118400,13.084118408203125,9.569636344909668,2.1402792930603027,-0.10792060941457748
1773230429482109400,13.100109375,9.56862735748291,2.145311117172241,-0.0969490185379982
1773230429498132000,13.116132080078126,9.573596954345703,2.1234130859375,-0.08796926587820053
1773230429514014200,13.13201416015625,9.581192970275879,2.0886003971099854,-0.0942038893699646
1773230429530113500,13.148113525390626,9.5860013961792,2.066045045852661,-0.10212522000074387
1773230429546106400,13.1641064453125,9.586567878723145,2.0635459423065186,-0.09939169883728027
1773230429562128000,13.1801279296875,9.584237098693848,2.0743420124053955,-0.09952376782894135
1773230429578119200,13.196119140625,9.57923412322998,2.097148895263672,-0.10309801250696182
1773230429594108700,13.212108642578125,9.572611808776855,2.1272921562194824,-0.1005949005484581
1773230429610132000,13.228132080078124,9.565673828125,2.1584606170654297,-0.09649952501058578
1773230429626121700,13.244121826171876,9.561080932617188,2.1788313388824463,-0.09388959407806396
1773230429642114000,13.260114013671876,9.560705184936523,2.1802754402160645,-0.09854991734027863
1773230429658104800,13.276104736328126,9.563858985900879,2.166748046875,-0.09046846628189087
1773230429674127600,13.292127685546875,9.57008171081543,2.140136241912842,-0.061111364513635635
1773230429690118400,13.308118408203125,9.576055526733398,2.1135575771331787,-0.049095381051301956
1773230429706109400,13.324109375,9.578489303588867,2.101956844329834,-0.06853300333023071
1773230429722131000,13.340130859375,9.57667350769043,2.1093835830688477,-0.09059808403253555
1773230429738123000,13.356123046875,9.572535514831543,2.1279408931732178,-0.09391725063323975
1773230429754113800,13.37211376953125,9.567975997924805,2.1486899852752686,-0.08569313585758209
1773230429770134800,13.388134765625,9.565001487731934,2.1621322631835938,-0.07945863157510757
1773230429786125300,13.404125244140625,9.564830780029297,2.1629157066345215,-0.07878302782773972
1773230429802117600,13.42011767578125,9.566225051879883,2.1566286087036133,-0.08168010413646698
1773230429818109200,13.436109130859375,9.568174362182617,2.147894859313965,-0.08355141431093216
1773230429834130200,13.452130126953126,9.570462226867676,2.137698173522949,-0.0829775258898735
1773230429850120400,13.468120361328126,9.57336139678955,2.1246047019958496,-0.08484083414077759
1773230429866113300,13.48411328125,9.576767921447754,2.1091105937957764,-0.08697360754013062
1773230429882134000,13.500134033203125,9.579532623291016,2.0963399410247803,-0.0910334438085556
1773230429898125800,13.516125732421875,9.579694747924805,2.095067262649536,-0.10255681723356247
1773230429914117000,13.5321171875,9.577260971069336,2.1055259704589844,-0.11494060605764389
1773230429930108200,13.548108154296875,9.57365894317627,2.121389150619507,-0.12308737635612488
1773230429946128000,13.5641279296875,9.570528984069824,2.1353163719177246,-0.1256697177886963
1773230429962120200,13.5801201171875,9.568047523498535,2.146275520324707,-0.12788017094135284
1773230429978110500,13.5961103515625,9.566593170166016,2.1525585651397705,-0.13101938366889954
1773230429994103800,13.612103759765626,9.56655502319336,2.1528372764587402,-0.12923932075500488
1773230430010125600,13.62812548828125,9.566899299621582,2.1515157222747803,-0.12570182979106903
1773230430026116000,13.6441162109375,9.566784858703613,2.1523752212524414,-0.1195298358798027
1773230430042107100,13.660107177734375,9.566304206848145,2.154888153076172,-0.11258907616138458
1773230430058128000,13.6761279296875,9.564931869506836,2.1607935428619385,-0.1159239187836647
1773230430074121000,13.692120849609376,9.562361717224121,2.171879291534424,-0.12068645656108856
1773230430090112500,13.708112548828124,9.559414863586426,2.1850600242614746,-0.11613120138645172
1773230430106131700,13.724131591796874,9.5579195022583,2.192091464996338,-0.10631273686885834
1773230430122123000,13.740123046875,9.558405876159668,2.1901047229766846,-0.10346081107854843
1773230430138115800,13.75611572265625,9.558788299560547,2.188265085220337,-0.10701335966587067
1773230430154107100,13.772107177734375,9.557738304138184,2.193108081817627,-0.10150555521249771
1773230430170128400,13.78812841796875,9.557063102722168,2.1964111328125,-0.0933275818824768
1773230430186119000,13.804118896484376,9.556367874145508,2.1993656158447266,-0.09489990770816803
1773230430202111500,13.820111572265626,9.55487060546875,2.205716371536255,-0.09819317609071732
1773230430218133500,13.836133544921875,9.553911209106445,2.209991216659546,-0.09546506404876709
1773230430234122800,13.852122802734375,9.553871154785156,2.210512399673462,-0.08697539567947388
1773230430250115000,13.868114990234375,9.554174423217773,2.209446907043457,-0.08042480796575546
1773230430266105900,13.88410595703125,9.553990364074707,2.2103500366210938,-0.07746836543083191
1773230430282127000,13.900127197265626,9.554096221923828,2.209953546524048,-0.07571670413017273
1773230430298118100,13.9161181640625,9.555233001708984,2.204923152923584,-0.07893931865692139
1773230430314110700,13.93211083984375,9.557123184204102,2.196682929992676,-0.0797765702009201
1773230430330132000,13.948132080078125,9.559316635131836,2.187267303466797,-0.07559990882873535
1773230430346124300,13.964124267578125,9.561483383178711,2.177926540374756,-0.07110117375850677
1773230430362113000,13.980113037109374,9.563258171081543,2.170163154602051,-0.06984547525644302
1773230430378104800,13.996104736328125,9.563604354858398,2.168431043624878,-0.07595960795879364
1773230430394126600,14.012126708984376,9.561590194702148,2.177046298980713,-0.08270002156496048
1773230430410117000,14.0281171875,9.558858871459961,2.18918514251709,-0.07793430238962173
1773230430426110000,14.04410986328125,9.557494163513184,2.1954801082611084,-0.06751527637243271
1773230430442132200,14.06013232421875,9.557435035705566,2.195949077606201,-0.06035097315907478
1773230430458120400,14.076120361328124,9.557480812072754,2.1957383155822754,-0.06067293509840965
1773230430474113800,14.09211376953125,9.558326721191406,2.192162036895752,-0.05651950463652611
1773230430490105000,14.10810498046875,9.560392379760742,2.183318614959717,-0.0490199439227581
1773230430506125800,14.124125732421875,9.562153816223145,2.175736427307129,-0.04224613681435585
1773230430522118000,14.140117919921876,9.562215805053711,2.1755146980285645,-0.03925883024930954
1773230430538108700,14.156108642578126,9.5609712600708,2.1809048652648926,-0.04328698664903641
1773230430554128600,14.172128662109374,9.559946060180664,2.1852164268493652,-0.051410965621471405
1773230430570122000,14.1881220703125,9.560272216796875,2.1836650371551514,-0.05654577165842056
1773230430586111000,14.204111083984374,9.562421798706055,2.1742231845855713,-0.05687566101551056
1773230430602133800,14.2201337890625,9.56429386138916,2.1659111976623535,-0.059201110154390335
1773230430618125800,14.236125732421876,9.562848091125488,2.1718976497650146,-0.07197623699903488
1773230430634116400,14.252116455078125,9.559224128723145,2.187514543533325,-0.07995346188545227
1773230430650108400,14.2681083984375,9.55722713470459,2.1964454650878906,-0.07362020760774612
1773230430666130200,14.284130126953125,9.557003021240234,2.197655439376831,-0.06617274135351181
1773230430682121500,14.30012158203125,9.556575775146484,2.1993961334228516,-0.07007701694965363
1773230430698110700,14.31611083984375,9.555937767028809,2.201850414276123,-0.0793190747499466
1773230430714104000,14.33210400390625,9.556600570678711,2.198981523513794,-0.07908058911561966
1773230430730125000,14.348125,9.557767868041992,2.1941068172454834,-0.0731489360332489
1773230430746115000,14.364114990234375,9.557580947875977,2.1950643062591553,-0.06873535364866257
1773230430762107100,14.380107177734375,9.556256294250488,2.200763463973999,-0.07055266946554184
1773230430778128400,14.39612841796875,9.555974960327148,2.201864004135132,-0.07435217499732971
1773230430794121200,14.412121337890625,9.557557106018066,2.1949353218078613,-0.07586897164583206
1773230430810112000,14.428112060546875,9.558290481567383,2.19155216217041,-0.08102989941835403
1773230430826133200,14.44413330078125,9.558090209960938,2.1923277378082275,-0.0836251750588417
1773230430842124800,14.460124755859376,9.557658195495605,2.1941425800323486,-0.08536657691001892
1773230430858116000,14.4761162109375,9.556492805480957,2.198854446411133,-0.09422233700752258
1773230430874107600,14.492107666015626,9.554402351379395,2.2076876163482666,-0.09949114173650742
1773230430890129000,14.50812890625,9.553669929504395,2.2112748622894287,-0.08971015363931656
1773230430906120400,14.524120361328125,9.554974555969238,2.205963611602783,-0.08105839043855667
1773230430922111200,14.540111328125,9.555974960327148,2.2013893127441406,-0.0872216671705246
1773230430938133000,14.556133056640626,9.55581283569336,2.201824188232422,-0.09381459653377533
1773230430954122500,14.57212255859375,9.55823040008545,2.191661834716797,-0.08505820482969284
1773230430970115600,14.588115478515626,9.562837600708008,2.171879291534424,-0.0739116221666336
1773230430986105900,14.60410595703125,9.565272331237793,2.1612019538879395,-0.07182901352643967
1773230431002128000,14.6201279296875,9.56442928314209,2.1647894382476807,-0.07593724876642227
1773230431018119000,14.636118896484374,9.562045097351074,2.175267457962036,-0.0768158957362175
1773230431034111000,14.652111083984375,9.559911727905273,2.1845052242279053,-0.08006159961223602
1773230431050132700,14.6681328125,9.558154106140137,2.192169189453125,-0.08038246631622314
1773230431066122200,14.684122314453125,9.557417869567871,2.1955831050872803,-0.07467596232891083
1773230431082115000,14.700114990234376,9.556575775146484,2.199420928955078,-0.06934917718172073
1773230431098105000,14.71610498046875,9.555416107177734,2.205091953277588,-0.044584114104509354
1773230431114125800,14.732125732421874,9.553031921386719,2.215667724609375,-0.02798895351588726
1773230431130118700,14.74811865234375,9.550949096679688,2.2244701385498047,-0.03853774815797806
1773230431146110000,14.76410986328125,9.551536560058594,2.2218000888824463,-0.046277694404125214
1773230431162131500,14.78013134765625,9.55434513092041,2.209851026535034,-0.037959985435009
1773230431178123000,14.796123046875,9.555978775024414,2.202826738357544,-0.034630950540304184
1773230431194111700,14.81211181640625,9.555344581604004,2.2054872512817383,-0.04013330861926079
1773230431210104800,14.828104736328125,9.553736686706543,2.2124218940734863,-0.04121836647391319
1773230431226127000,14.844127197265625,9.551865577697754,2.220592737197876,-0.035016223788261414
1773230431242117600,14.86011767578125,9.550838470458984,2.225005626678467,-0.03506561368703842
1773230431258107100,14.876107177734376,9.551862716674805,2.220421552658081,-0.04505538567900658
1773230431274100700,14.892100830078125,9.554100036621094,2.2106781005859375,-0.049518611282110214
1773230431290121200,14.908121337890625,9.558222770690918,2.1930298805236816,-0.03733209893107414
1773230431306112800,14.92411279296875,9.563644409179688,2.1694722175598145,-0.02187076397240162
1773230431322104800,14.940104736328125,9.5663423538208,2.157510280609131,-0.02510722540318966
1773230431338123800,14.956123779296876,9.56371784210205,2.1689231395721436,-0.03834942355751991
1773230431354116900,14.972116943359374,9.558509826660156,2.191718101501465,-0.04072225093841553
1773230431370109700,14.988109619140625,9.555875778198242,2.203298568725586,-0.03301620855927467
1773230431386130700,15.004130615234375,9.557572364807129,2.195957660675049,-0.031153593212366104
1773230431402121700,15.020121826171875,9.56014633178711,2.1846675872802734,-0.03497921675443649
1773230431418112500,15.036112548828125,9.56098747253418,2.1810081005096436,-0.03314841911196709
1773230431434104000,15.05210400390625,9.56114387512207,2.180447816848755,-0.023804763332009315
1773230431450125600,15.06812548828125,9.561137199401855,2.1805410385131836,-0.01677095703780651
1773230431466116600,15.08411669921875,9.560711860656738,2.182436227798462,-0.012669914402067661
1773230431482107100,15.100107177734374,9.559944152832031,2.1857805252075195,-0.014907719567418098
1773230431498129400,15.11612939453125,9.557759284973145,2.19533371925354,-0.011116145178675652
1773230431514121000,15.132120849609375,9.555148124694824,2.2067019939422607,-0.0005638444563373923
1773230431530111000,15.148111083984375,9.55549144744873,2.205204486846924,0.006275390740483999
1773230431546103800,15.164103759765625,9.558083534240723,2.193948268890381,0.00119023269508034
1773230431562124800,15.180124755859374,9.558177947998047,2.1935176849365234,-0.010476422496140003
1773230431578115800,15.19611572265625,9.55419635772705,2.210742950439453,-0.018476882949471474
1773230431594105900,15.21210595703125,9.548125267028809,2.2368547916412354,-0.013186083175241947
1773230431610129000,15.22812890625,9.543761253356934,2.2554070949554443,-0.012212781235575676
1773230431626120400,15.244120361328125,9.544838905334473,2.250842809677124,-0.012383096851408482
1773230431642111200,15.260111328125,9.552489280700684,2.2181718349456787,0.008146555162966251
1773230431658101500,15.2761015625,9.566384315490723,2.157172441482544,0.0356404185295105
1773230431674123800,15.292123779296874,9.57819652557373,2.1035308837890625,0.060806095600128174
1773230431690114800,15.30811474609375,9.582270622253418,2.0850679874420166,0.054564423859119415
1773230431706107000,15.32410693359375,9.578533172607422,2.1026999950408936,0.02722114883363247
1773230431722128600,15.340128662109375,9.571481704711914,2.134728193283081,0.007597907911986113
1773230431738120200,15.3561201171875,9.565650939941406,2.1606271266937256,0.0200719702988863
1773230431754110000,15.37210986328125,9.564596176147461,2.16477632522583,0.051352549344301224
1773230431770130400,15.38813037109375,9.569403648376465,2.1430420875549316,0.06538461893796921
1773230431786123300,15.404123291015624,9.574753761291504,2.1192679405212402,0.0562920905649662
1773230431802114300,15.4201142578125,9.57778549194336,2.1056697368621826,0.0505751371383667
1773230431818105000,15.43610498046875,9.57882308959961,2.100644826889038,0.06186247244477272
1773230431834127600,15.452127685546875,9.578338623046875,2.1022839546203613,0.07893939316272736
1773230431850119000,15.468118896484375,9.576299667358398,2.1114559173583984,0.0814562663435936
1773230431866108200,15.484108154296875,9.572086334228516,2.130669355392456,0.07614738494157791
1773230431882099500,15.500099365234375,9.567272186279297,2.1526808738708496,0.06046071648597717
1773230431898122200,15.516122314453124,9.564380645751953,2.1658756732940674,0.044484637677669525
1773230431914114300,15.5321142578125,9.562108993530273,2.176081418991089,0.03365129232406616
1773230431930105600,15.548105712890624,9.559900283813477,2.1857895851135254,0.03199091926217079
1773230431946126000,15.5641259765625,9.558455467224121,2.192087411880493,0.03257843852043152
1773230431962116400,15.580116455078125,9.559222221374512,2.1887271404266357,0.03373560681939125
1773230431978109400,15.596109375,9.562734603881836,2.1734354496002197,0.025906959548592567
1773230431994101200,15.612101318359375,9.565834999084473,2.159857749938965,0.014496946707367897
1773230432010122000,15.6281220703125,9.566352844238281,2.1575825214385986,0.010815920308232307
1773230432026114000,15.644114013671874,9.56502628326416,2.1634328365325928,0.014751104637980461
1773230432042102300,15.660102294921876,9.563311576843262,2.170949697494507,0.020925043150782585
1773230432058124800,15.676124755859375,9.562280654907227,2.1754932403564453,0.020176783204078674
1773230432074118100,15.6921181640625,9.562835693359375,2.173081636428833,0.016594942659139633
1773230432090109700,15.708109619140625,9.56364631652832,2.169560670852661,0.007459193468093872
1773230432106130200,15.724130126953124,9.564802169799805,2.1644527912139893,0.010027582757174969
1773230432122121700,15.740121826171874,9.56758975982666,2.152000904083252,0.02243237942457199
1773230432138113300,15.75611328125,9.57155704498291,2.1342129707336426,0.028901319950819016
1773230432154104600,15.7721044921875,9.57359504699707,2.125164031982422,0.018779372796416283
1773230432170125800,15.788125732421875,9.57213020324707,2.131824493408203,0.0057927947491407394
1773230432186117400,15.804117431640625,9.568622589111328,2.14752197265625,0.00108841632027179
1773230432202109000,15.82010888671875,9.565515518188477,2.1613194942474365,-0.0017080826219171286
1773230432218131000,15.836130859375,9.563884735107422,2.168522357940674,-0.0022196487989276648
1773230432234121500,15.85212158203125,9.563417434692383,2.1705667972564697,0.008020078763365746
1773230432250113300,15.86811328125,9.563697814941406,2.1691997051239014,0.02539583295583725
1773230432266103000,15.88410302734375,9.56430435180664,2.166449785232544,0.03104107268154621
1773230432282125300,15.900125244140625,9.564126968383789,2.167351484298706,0.021061748266220093
1773230432298114600,15.916114501953125,9.56277084350586,2.1733107566833496,0.023012736812233925
1773230432314108200,15.932108154296875,9.561727523803711,2.177583932876587,0.04341762885451317
1773230432330129000,15.94812890625,9.56363296508789,2.1686782836914062,0.06442516297101974
1773230432346119700,15.96411962890625,9.569112777709961,2.144454002380371,0.06149787828326225
1773230432362110700,15.98011083984375,9.573806762695312,2.123774766921997,0.04693356528878212
1773230432378102000,15.99610205078125,9.573935508728027,2.123293161392212,0.04217299818992615
1773230432394123500,16.01212353515625,9.571920394897461,2.1323158740997314,0.044117704033851624
1773230432410116400,16.028116455078123,9.570523262023926,2.138617515563965,0.042266156524419785
1773230432426107100,16.044107177734375,9.569831848144531,2.1418163776397705,0.03636990115046501
1773230432442128400,16.06012841796875,9.56927490234375,2.144454002380371,0.025982948020100594
1773230432458120700,16.07612060546875,9.570050239562988,2.141043186187744,0.021431969478726387
1773230432474111700,16.09211181640625,9.572212219238281,2.131333351135254,0.02357102744281292
1773230432490102300,16.108102294921874,9.573748588562012,2.1243414878845215,0.030056992545723915
1773230432506124500,16.12412451171875,9.575543403625488,2.1161446571350098,0.03597228229045868
1773230432522115600,16.140115478515625,9.577855110168457,2.1057257652282715,0.03174743056297302
1773230432538157300,16.1561572265625,9.577937126159668,2.105431318283081,0.02593669854104519
1773230432554179600,16.1721796875,9.57658863067627,2.111558675765991,0.025558767840266228
1773230432570170000,16.188170166015624,9.577561378479004,2.107060194015503,0.031715866178274155
1773230432586161000,16.204160888671876,9.582179069519043,2.085820198059082,0.039797063916921616
1773230432602183400,16.220183349609375,9.58627700805664,2.066715717315674,0.04873557388782501
1773230432618174700,16.2361748046875,9.58718490600586,2.062312364578247,0.05606412515044212
1773230432634165500,16.25216552734375,9.585105895996094,2.071925640106201,0.0570666529238224
1773230432650157000,16.268156982421875,9.582493782043457,2.0840253829956055,0.05507555231451988
1773230432666177500,16.284177490234374,9.58126449584961,2.089648723602295,0.05583612620830536
1773230432682169600,16.300169677734374,9.581588745117188,2.087733030319214,0.070133276283741
1773230432698160000,16.31616015625,9.582901954650879,2.081209897994995,0.08342081308364868
1773230432714184000,16.332183837890625,9.58441162109375,2.0744810104370117,0.07728376984596252
1773230432730174000,16.348174072265625,9.584465026855469,2.074545383453369,0.06838010996580124
1773230432746165800,16.364165771484377,9.58335018157959,2.0795371532440186,0.07295629382133484
1773230432762156500,16.380156494140625,9.584802627563477,2.072253465652466,0.08785565197467804
1773230432778177500,16.396177490234376,9.588369369506836,2.055558443069458,0.09083233028650284
1773230432794169900,16.412169921875,9.590441703796387,2.046029567718506,0.08704674243927002
1773230432810160400,16.428160400390624,9.589070320129395,2.052525520324707,0.08520108461380005
1773230432826182400,16.444182373046875,9.586894989013672,2.062650442123413,0.08546470105648041
1773230432842173700,16.460173583984375,9.585389137268066,2.069824695587158,0.08085446804761887
1773230432858164700,16.476164794921875,9.584688186645508,2.073113441467285,0.07959449291229248
1773230432874153700,16.49215380859375,9.58503532409668,2.071181535720825,0.0876590684056282
1773230432890177500,16.508177490234374,9.585884094238281,2.0666842460632324,0.10011567175388336
1773230432906166000,16.524166015625,9.586633682250977,2.062943935394287,0.10536916553974152
1773230432922161000,16.540160888671874,9.587662696838379,2.05812668800354,0.10594956576824188
1773230432938179600,16.5561796875,9.590306282043457,2.045384645462036,0.11317618936300278
1773230432954173000,16.5721728515625,9.594124794006348,2.026655673980713,0.1257798671722412
1773230432970164500,16.58816455078125,9.596454620361328,2.01547908782959,0.12766842544078827
1773230432986155500,16.604155517578125,9.596477508544922,2.0163469314575195,0.11120982468128204
1773230433002176000,16.620176025390624,9.596100807189941,2.0189056396484375,0.09618048369884491
1773230433018169000,16.636169189453124,9.595637321472168,2.021317720413208,0.09166877716779709
1773230433034160000,16.65216015625,9.59563159942627,2.02126145362854,0.09348795562982559
1773230433050182100,16.66818212890625,9.596253395080566,2.018475294113159,0.08983404189348221
1773230433066173200,16.684173095703127,9.596948623657227,2.015636920928955,0.0786597728729248
1773230433082164200,16.700164306640627,9.597479820251465,2.013470411300659,0.06863989681005478
1773230433098154500,16.716154541015626,9.598817825317383,2.0070035457611084,0.07087276875972748
1773230433114177300,16.73217724609375,9.600688934326172,1.9974790811538696,0.08507639169692993
1773230433130168300,16.748168212890626,9.601431846618652,1.9935417175292969,0.0932246670126915
1773230433146158000,16.764157958984374,9.60036563873291,1.9987225532531738,0.0920930728316307
1773230433162180400,16.780180419921876,9.599926948547363,2.0004830360412598,0.09928824007511139
1773230433178172200,16.796172119140625,9.602049827575684,1.989681601524353,0.11041457951068878
1773230433194163700,16.812163818359377,9.603113174438477,1.9843735694885254,0.11342983692884445
1773230433210154500,16.828154541015625,9.60103988647461,1.9943459033966064,0.11402320116758347
1773230433226177000,16.844177001953124,9.599617958068848,2.0006275177001953,0.12335483729839325
1773230433242167000,16.8601669921875,9.602645874023438,1.985392689704895,0.13344182074069977
1773230433258159600,16.87615966796875,9.606284141540527,1.9682109355926514,0.12586042284965515
1773230433274178600,16.892178466796874,9.605461120605469,1.9732580184936523,0.10846146941184998
1773230433290171600,16.908171630859375,9.599427223205566,2.002622365951538,0.10435714572668076
1773230433306163700,16.924163818359375,9.592613220214844,2.0344905853271484,0.11406627297401428
1773230433322154800,16.94015478515625,9.588008880615234,2.0562095642089844,0.11168474704027176
1773230433338175000,16.956175048828126,9.58569049835205,2.0676848888397217,0.09799608588218689
1773230433354166300,16.972166259765626,9.584882736206055,2.0719528198242188,0.08617496490478516
1773230433370158800,16.988158935546874,9.584625244140625,2.073310375213623,0.08214809000492096
1773230433386181000,17.00418115234375,9.584562301635742,2.073551654815674,0.08327384293079376
1773230433402171000,17.0201708984375,9.587419509887695,2.060136079788208,0.08723938465118408
1773230433418163000,17.036162841796877,9.592392921447754,2.0369350910186768,0.0853605791926384
1773230433434152000,17.05215185546875,9.595864295959473,2.0207877159118652,0.07872461527585983
1773230433450175700,17.06817578125,9.595624923706055,2.0222761631011963,0.06900876760482788
1773230433466166500,17.08416650390625,9.592432022094727,2.03765606880188,0.059943050146102905
1773230433482158000,17.100157958984376,9.589111328125,2.0534634590148926,0.05125639587640762
1773230433498180400,17.116180419921875,9.587095260620117,2.062987804412842,0.04561583325266838
1773230433514169900,17.132169921875,9.586471557617188,2.0655157566070557,0.059875354170799255
1773230433530162700,17.14816259765625,9.586398124694824,2.065497875213623,0.07122235000133514
1773230433546152200,17.164152099609375,9.589083671569824,2.0525600910186768,0.08283833414316177
1773230433562175000,17.180175048828126,9.593461036682129,2.031507968902588,0.09416669607162476
1773230433578166500,17.19616650390625,9.596884727478027,2.0148987770080566,0.10184600204229355
1773230433594157600,17.212157470703126,9.597413063049316,2.011845111846924,0.1118580549955368
1773230433610179600,17.2281796875,9.595365524291992,2.021200656890869,0.11871851980686188
1773230433626169600,17.244169677734376,9.59144115447998,2.0393877029418945,0.12469170987606049
1773230433642161000,17.260160888671876,9.588081359863281,2.0554683208465576,0.11888572573661804
1773230433658183700,17.27618359375,9.588176727294922,2.0541744232177734,0.13272249698638916
1773230433674175700,17.29217578125,9.590198516845703,2.044206142425537,0.14035093784332275
1773230433690165500,17.30816552734375,9.590963363647461,2.0407209396362305,0.13881514966487885
1773230433706156000,17.324156005859376,9.589085578918457,2.0500001907348633,0.13159936666488647
1773230433722178300,17.34017822265625,9.585567474365234,2.0672261714935303,0.11778715252876282
1773230433738171100,17.356171142578123,9.583368301391602,2.0777997970581055,0.11041790246963501
1773230433754161700,17.37216162109375,9.582849502563477,2.0801124572753906,0.11190799623727798
1773230433770152400,17.38815234375,9.581268310546875,2.086948871612549,0.1197538897395134
1773230433786172700,17.404172607421874,9.579949378967285,2.092742443084717,0.12403634935617447
1773230433802164500,17.42016455078125,9.583580017089844,2.076200246810913,0.12151311337947845
1773230433818156800,17.43615673828125,9.591731071472168,2.0389480590820312,0.10844846814870834
1773230433834176500,17.452176513671876,9.597420692443848,2.0120041370391846,0.10839564353227615
1773230433850170600,17.468170654296873,9.597037315368652,2.012011766433716,0.13806144893169403
1773230433866161700,17.48416162109375,9.593589782714844,2.0274319648742676,0.15147139132022858
1773230433882183000,17.500182861328124,9.590328216552734,2.0445830821990967,0.12518654763698578
1773230433898172700,17.516172607421876,9.587791442871094,2.057821273803711,0.10001838207244873
1773230433914163000,17.532162841796875,9.586905479431152,2.060776710510254,0.12178181111812592
1773230433930155800,17.54815576171875,9.589761734008789,2.0445003509521484,0.1639353334903717
1773230433946177000,17.564177001953126,9.593513488769531,2.025111675262451,0.18391214311122894
1773230433962170000,17.580170166015623,9.59646224975586,2.0110652446746826,0.18416078388690948
1773230433978161700,17.59616162109375,9.598298072814941,2.0016064643859863,0.1913665533065796
1773230433994181400,17.612181396484374,9.599687576293945,1.9934521913528442,0.20622487366199493
1773230434010173700,17.628173583984374,9.599823951721191,1.992812991142273,0.20606184005737305
1773230434026165000,17.6441650390625,9.60615348815918,1.9638985395431519,0.18787816166877747
1773230434042155300,17.6601552734375,9.612960815429688,1.930493712425232,0.1858956515789032
1773230434058178600,17.676178466796873,9.620129585266113,1.8931119441986084,0.19905681908130646
1773230434074168300,17.692168212890625,9.625752449035645,1.8642715215682983,0.19940537214279175
1773230434090160600,17.70816064453125,9.629657745361328,1.8455830812454224,0.1841050386428833
1773230434106181600,17.724181640625,9.63344669342041,1.8264200687408447,0.17685437202453613
1773230434122173700,17.740173583984376,9.636458396911621,1.8098671436309814,0.1828635185956955
1773230434138165000,17.7561650390625,9.63772201538086,1.8024977445602417,0.18899908661842346
1773230434154155800,17.77215576171875,9.638286590576172,1.7994227409362793,0.18943767249584198
1773230434170177000,17.788177001953127,9.640134811401367,1.7891485691070557,0.1927187740802765
1773230434186168800,17.8041689453125,9.644241333007812,1.765852928161621,0.20187070965766907
1773230434202160400,17.820160400390623,9.648837089538574,1.7396942377090454,0.20925931632518768
1773230434218182700,17.8361826171875,9.651111602783203,1.7270534038543701,0.20912475883960724
1773230434234173400,17.85217333984375,9.651167869567871,1.727001428604126,0.20692795515060425
1773230434250164200,17.868164306640626,9.650355339050293,1.7311195135116577,0.2103710025548935
1773230434266154500,17.884154541015626,9.650174140930176,1.7309945821762085,0.21950343251228333
1773230434282177300,17.90017724609375,9.651801109313965,1.720659613609314,0.2289956659078598
1773230434298166800,17.916166748046876,9.65446662902832,1.705115556716919,0.23292620480060577
1773230434314157800,17.93215771484375,9.656475067138672,1.693477749824524,0.23454971611499786
1773230434330180400,17.948180419921876,9.657041549682617,1.6893376111984253,0.24098807573318481
1773230434346172700,17.964172607421876,9.658259391784668,1.6798511743545532,0.2579200267791748
1773230434362162400,17.980162353515624,9.659841537475586,1.6678931713104248,0.27563586831092834
1773230434378153500,17.996153564453124,9.661701202392578,1.6568046808242798,0.27732735872268677
1773230434394176500,18.012176513671875,9.66455078125,1.641922950744629,0.2663310766220093
1773230434410166500,18.02816650390625,9.666129112243652,1.6343114376068115,0.2556561827659607
1773230434426160400,18.044160400390624,9.664868354797363,1.6402226686477661,0.26529639959335327
1773230434442179600,18.0601796875,9.665596008300781,1.6324046850204468,0.28619009256362915
1773230434458172400,18.07617236328125,9.668672561645508,1.6142585277557373,0.2851833403110504
1773230434474162400,18.092162353515626,9.669672012329102,1.6133373975753784,0.25491204857826233
1773230434490154200,18.108154296875,9.666893005371094,1.6337429285049438,0.22903430461883545
1773230434506176300,18.12417626953125,9.662699699401855,1.6582753658294678,0.22967860102653503
1773230434522166500,18.14016650390625,9.66025447845459,1.670051097869873,0.24657903611660004
1773230434538158600,18.15615869140625,9.660542488098145,1.6661736965179443,0.26110199093818665
1773230434554180900,18.172180908203124,9.662561416625977,1.6545302867889404,0.2604179084300995
1773230434570171100,18.188171142578124,9.664965629577637,1.6433638334274292,0.2412138134241104
1773230434586161700,18.20416162109375,9.666715621948242,1.635318636894226,0.22521741688251495
1773230434602184400,18.220184326171875,9.66734790802002,1.631725788116455,0.22414974868297577
1773230434618174500,18.236174560546875,9.667777061462402,1.6281250715255737,0.23169589042663574
1773230434634166000,18.252166015625,9.668533325195312,1.6230040788650513,0.23603107035160065
1773230434650158800,18.268158935546875,9.66830825805664,1.625868320465088,0.22530323266983032
1773230434666178600,18.284178466796874,9.66724681854248,1.6341025829315186,0.21078012883663177
1773230434682170400,18.30017041015625,9.666162490844727,1.6413756608963013,0.20390377938747406
1773230434698162000,18.316161865234374,9.665027618408203,1.6466500759124756,0.2148648053407669
1773230434714153200,18.3321533203125,9.664701461791992,1.6463804244995117,0.23102037608623505
1773230434730175200,18.34817529296875,9.665340423583984,1.6415244340896606,0.2386767715215683
1773230434746164200,18.364164306640625,9.666671752929688,1.6349905729293823,0.2294550985097885
1773230434762156800,18.38015673828125,9.667014122009277,1.6343578100204468,0.21930713951587677
1773230434778180400,18.396180419921876,9.666748046875,1.635521411895752,0.22237586975097656
1773230434794171600,18.412171630859376,9.667759895324707,1.6289540529251099,0.2265530526638031
1773230434810162200,18.428162109375,9.670029640197754,1.616262435913086,0.2204866260290146
1773230434826151000,18.44415087890625,9.672361373901367,1.6037979125976562,0.20890337228775024
1773230434842174700,18.4601748046875,9.671648025512695,1.6092898845672607,0.19948454201221466
1773230434858164500,18.47616455078125,9.669025421142578,1.6253653764724731,0.19628161191940308
1773230434874154800,18.49215478515625,9.666764259338379,1.6385362148284912,0.1981050968170166
1773230434890178600,18.508178466796874,9.666642189025879,1.6389336585998535,0.2007719874382019
1773230434906168800,18.5241689453125,9.667625427246094,1.6332522630691528,0.19976134598255157
1773230434922160400,18.540160400390626,9.667231559753418,1.6356518268585205,0.19916962087154388
1773230434938184400,18.556184326171874,9.666223526000977,1.6418509483337402,0.19706103205680847
1773230434954172200,18.572172119140625,9.667089462280273,1.6372300386428833,0.19300667941570282
1773230434970166000,18.588166015625,9.670143127441406,1.6204649209976196,0.1811826527118683
1773230434986158300,18.604158447265625,9.672557830810547,1.6073437929153442,0.1686919629573822
1773230435002179600,18.6201796875,9.67315673828125,1.603977918624878,0.16639062762260437
1773230435018170600,18.636170654296876,9.6737060546875,1.600443720817566,0.1684621274471283
1773230435034161400,18.652161376953124,9.674530982971191,1.595961332321167,0.1635313332080841
1773230435050183000,18.668182861328123,9.674799919128418,1.5946433544158936,0.1604621857404709
1773230435066173400,18.68417333984375,9.674806594848633,1.593738079071045,0.1688481718301773
1773230435082165200,18.700165283203123,9.674756050109863,1.5928103923797607,0.1801391988992691
1773230435098156800,18.71615673828125,9.674365997314453,1.5941143035888672,0.1892624944448471
1773230435114178800,18.7321787109375,9.674103736877441,1.5942180156707764,0.20145539939403534
1773230435130170400,18.74817041015625,9.674659729003906,1.5890471935272217,0.21512947976589203
1773230435146161200,18.7641611328125,9.67660903930664,1.5756924152374268,0.22544491291046143
1773230435162182100,18.78018212890625,9.678871154785156,1.5608196258544922,0.23173019289970398
1773230435178174500,18.796174560546874,9.679557800292969,1.555814504623413,0.23660829663276672
1773230435194162400,18.812162353515625,9.678682327270508,1.5581129789352417,0.2564568519592285
1773230435210156300,18.82815625,9.677356719970703,1.5602374076843262,0.29124724864959717
1773230435226177500,18.844177490234376,9.676740646362305,1.5590403079986572,0.3169633150100708
1773230435242168800,18.8601689453125,9.670659065246582,1.5835756063461304,0.3755378723144531
1773230435258160400,18.876160400390624,9.657608032226562,1.64104425907135,0.45604267716407776
1773230435274183200,18.89218310546875,9.637675285339355,1.7373013496398926,0.5171098113059998
1773230435290171100,18.908171142578126,9.613020896911621,1.8604936599731445,0.5466065406799316
1773230435306162000,18.924161865234375,9.589223861694336,1.9779038429260254,0.552331268787384
1773230435322154800,18.94015478515625,9.569876670837402,2.069474220275879,0.5523799061775208
1773230435338177500,18.956177490234374,9.557151794433594,2.1259140968322754,0.5583187937736511
1773230435354167600,18.97216748046875,9.551844596862793,2.14681339263916,0.5690653324127197
1773230435370160400,18.988160400390626,9.552085876464844,2.142770290374756,0.580148458480835
1773230435386182000,19.004181884765625,9.55578899383545,2.123865842819214,0.5886281728744507
1773230435402173200,19.020173095703125,9.560608863830566,2.0986435413360596,0.6007034182548523
1773230435418164500,19.03616455078125,9.564355850219727,2.074313163757324,0.6250662207603455
1773230435434153000,19.052153076171876,9.565568923950195,2.0605642795562744,0.6514297723770142
1773230435450177500,19.068177490234376,9.566399574279785,2.054717779159546,0.6576526165008545
1773230435466169000,19.084169189453124,9.567453384399414,2.050438404083252,0.6556845903396606
1773230435482160000,19.10016015625,9.568495750427246,2.0441465377807617,0.6601066589355469
1773230435498181600,19.116181640625,9.568002700805664,2.0432026386260986,0.670099675655365
1773230435514173200,19.132173095703124,9.565011978149414,2.0538296699523926,0.6802428960800171
1773230435530164200,19.148164306640624,9.562265396118164,2.0663554668426514,0.6809167265892029
1773230435546153700,19.16415380859375,9.562904357910156,2.0660243034362793,0.6728953123092651
1773230435562176500,19.180176513671874,9.564766883850098,2.06247878074646,0.6571188569068909
1773230435578166300,19.196166259765626,9.558710098266602,2.102224826812744,0.618148684501648
1773230435594157300,19.2121572265625,9.550848007202148,2.150728225708008,0.5710159540176392
1773230435610180600,19.2281806640625,9.545174598693848,2.1871936321258545,0.5255691409111023
1773230435626171000,19.2441708984375,9.544586181640625,2.1992900371551514,0.4841357171535492
1773230435642162400,19.260162353515625,9.541369438171387,2.222148895263672,0.4412533938884735
1773230435658154800,19.27615478515625,9.53272819519043,2.2703137397766113,0.3783470094203949
1773230435674176300,19.29217626953125,9.519336700439453,2.336611747741699,0.30472126603126526
1773230435690167600,19.30816748046875,9.506945610046387,2.3956258296966553,0.22217027842998505
1773230435706157600,19.324157470703124,9.49314022064209,2.4556899070739746,0.14231789112091064
1773230435722181000,19.34018115234375,9.482641220092773,2.498420238494873,0.08838515728712082
1773230435738172200,19.356172119140624,9.47523307800293,2.527240753173828,0.058330755680799484
1773230435754162200,19.372162109375,9.469100952148438,2.5504376888275146,0.04213738068938255
1773230435770151700,19.388151611328126,9.466045379638672,2.5619945526123047,0.023474033921957016
1773230435786176800,19.4041767578125,9.465856552124023,2.562798023223877,0.004426584113389254
1773230435802167600,19.42016748046875,9.467140197753906,2.5580520629882812,-0.001620842725969851
1773230435818158600,19.43615869140625,9.4692964553833,2.5500433444976807,0.009597191587090492
1773230435834180000,19.45218017578125,9.47179126739502,2.540754795074463,0.011361205950379372
1773230435850172000,19.468171875,9.47099781036377,2.5437142848968506,-0.010573014616966248
1773230435866161400,19.484161376953125,9.46495532989502,2.5659029483795166,-0.03382854908704758
1773230435882183700,19.50018359375,9.458905220031738,2.58808970451355,-0.035914670675992966
1773230435898175500,19.516175537109376,9.458498001098633,2.589684247970581,-0.02705865167081356
1773230435914165000,19.5321650390625,9.459464073181152,2.5860722064971924,-0.033991117030382156
1773230435930158300,19.548158447265624,9.455556869506836,2.6001203060150146,-0.046908941119909286
1773230435946179300,19.564179443359375,9.448083877563477,2.6269524097442627,-0.05679510533809662
1773230435962171400,19.58017138671875,9.444975852966309,2.637754440307617,-0.07114315032958984
1773230435978161000,19.596160888671875,9.442144393920898,2.6467885971069336,-0.1039135605096817
1773230435994152000,19.61215185546875,9.431618690490723,2.682084560394287,-0.1461772322654724
1773230436010175200,19.62817529296875,9.416077613830566,2.7331950664520264,-0.19367022812366486
1773230436026165800,19.644165771484374,9.401461601257324,2.779371738433838,-0.24080489575862885
1773230436042156500,19.660156494140626,9.392048835754395,2.807645320892334,-0.27737104892730713
1773230436058177500,19.676177490234377,9.389139175415039,2.8145833015441895,-0.30427807569503784
1773230436074170400,19.69217041015625,9.385503768920898,2.8240647315979004,-0.32768169045448303
1773230436090161200,19.7081611328125,9.379880905151367,2.8404886722564697,-0.34618037939071655
1773230436106182100,19.72418212890625,9.37376880645752,2.8590140342712402,-0.3589971959590912
1773230436122175500,19.740175537109376,9.369165420532227,2.8730108737945557,-0.3673396408557892
1773230436138166300,19.756166259765624,9.368354797363281,2.8739571571350098,-0.3803732097148895
1773230436154156000,19.772156005859376,9.366101264953613,2.8786017894744873,-0.40023931860923767
1773230436170179300,19.788179443359375,9.362862586975098,2.886615514755249,-0.41788744926452637
1773230436186170000,19.804170166015624,9.361629486083984,2.888227701187134,-0.43407514691352844
1773230436202161700,19.82016162109375,9.35287857055664,2.9125306606292725,-0.4595821797847748
1773230436218183000,19.836182861328126,9.354535102844238,2.9064881801605225,-0.46411263942718506
1773230436234173000,19.8521728515625,9.362414360046387,2.8836472034454346,-0.447388619184494
1773230436250163000,19.868162841796874,9.373331069946289,2.851959228515625,-0.42117154598236084
1773230436266157000,19.884156982421874,9.386103630065918,2.8134565353393555,-0.3948500156402588
1773230436282178300,19.90017822265625,9.398991584777832,2.7756316661834717,-0.35385844111442566
1773230436298169000,19.916169189453125,9.413031578063965,2.736161708831787,-0.2804357707500458
1773230436314161200,19.9321611328125,9.428492546081543,2.6901304721832275,-0.19264493882656097
1773230436330183000,19.948182861328124,9.444933891296387,2.6365957260131836,-0.10945921391248703
1773230436346174000,19.964174072265624,9.460752487182617,2.5813300609588623,-0.03583579510450363
1773230436362164700,19.980164794921876,9.47457218170166,2.5302395820617676,0.02760316990315914
1773230436378155000,19.996155029296876,9.483933448791504,2.494100332260132,0.06972052901983261
1773230436394178300,20.01217822265625,9.491708755493164,2.463083028793335,0.10526720434427261
1773230436410169000,20.028169189453124,9.498212814331055,2.4364986419677734,0.1334587037563324
1773230436426161200,20.0441611328125,9.501794815063477,2.4219744205474854,0.14255890250205994
1773230436442181000,20.06018115234375,9.501890182495117,2.4215545654296875,0.14335501194000244
1773230436458173700,20.076173583984374,9.500019073486328,2.4284911155700684,0.14988172054290771
1773230436474164700,20.092164794921874,9.498513221740723,2.4333012104034424,0.1663467437028885
1773230436490155000,20.108155029296874,9.49692153930664,2.4393787384033203,0.16818565130233765
1773230436506176800,20.1241767578125,9.497312545776367,2.438175916671753,0.16354651749134064
1773230436522167300,20.140167236328125,9.499156951904297,2.431067943572998,0.1622074544429779
1773230436538159400,20.156159423828125,9.501941680908203,2.4195644855499268,0.17089331150054932
1773230436554180000,20.17218017578125,9.505291938781738,2.4054183959960938,0.18377266824245453
1773230436570141000,20.188140869140625,9.511151313781738,2.380758047103882,0.2009512186050415
1773230436586165000,20.2041650390625,9.520280838012695,2.341172456741333,0.2314043641090393
1773230436602154200,20.220154296875,9.53274917602539,2.2849268913269043,0.2760253846645355
1773230436618178300,20.23617822265625,9.544390678405762,2.231884241104126,0.3060758709907532
1773230436634168000,20.25216796875,9.554945945739746,2.18435001373291,0.3194054663181305
1773230436650160000,20.26816015625,9.560176849365234,2.1555118560791016,0.356626957654953
1773230436666179600,20.2841796875,9.56301212310791,2.1338298320770264,0.4073803126811981
1773230436682172400,20.30017236328125,9.562418937683105,2.1221227645874023,0.4765756130218506
1773230436698164700,20.316164794921875,9.563773155212402,2.1090664863586426,0.5064305663108826
1773230436714155800,20.33215576171875,9.565286636352539,2.102555990219116,0.5049148201942444
1773230436730175000,20.348175048828125,9.564942359924316,2.1061151027679443,0.4965338110923767
1773230436746168300,20.364168212890625,9.564762115478516,2.105828285217285,0.5011976361274719
1773230436762158800,20.380158935546874,9.566122055053711,2.097527027130127,0.5099844336509705
1773230436778181000,20.39618115234375,9.565674781799316,2.0980167388916016,0.5163177847862244
1773230436794170600,20.412170654296876,9.56403923034668,2.104548454284668,0.5200236439704895
1773230436810164000,20.4281640625,9.562373161315918,2.111189126968384,0.5237225294113159
1773230436826155300,20.4441552734375,9.561100006103516,2.117725133895874,0.5205637812614441
1773230436842176300,20.46017626953125,9.558789253234863,2.12981915473938,0.5136324167251587
1773230436858167000,20.4761669921875,9.555191040039062,2.1467154026031494,0.5102313160896301
1773230436874159400,20.492159423828124,9.553175926208496,2.1561925411224365,0.5079748034477234
1773230436890180600,20.5081806640625,9.551839828491211,2.1649694442749023,0.49562299251556396
1773230436906172000,20.524171875,9.54953670501709,2.1792445182800293,0.47709792852401733
1773230436922162400,20.540162353515626,9.546052932739258,2.195274829864502,0.47332143783569336
1773230436938184200,20.55618408203125,9.543194770812988,2.2069225311279297,0.47678253054618835
1773230436954176500,20.572176513671874,9.541984558105469,2.2144272327423096,0.4660828113555908
1773230436970166300,20.588166259765625,9.539710998535156,2.231271266937256,0.4309806227684021
1773230436986158800,20.604158935546874,9.533219337463379,2.2675492763519287,0.38256099820137024
1773230437002179600,20.6201796875,9.522929191589355,2.317983627319336,0.3333905041217804
1773230437018169900,20.636169921875,9.512593269348145,2.36625599861145,0.28598374128341675
1773230437034162000,20.652161865234376,9.499576568603516,2.4216713905334473,0.2528975009918213
1773230437050184400,20.668184326171875,9.488162994384766,2.46925950050354,0.21887101233005524
1773230437066176300,20.68417626953125,9.479598999023438,2.5059022903442383,0.16746315360069275
1773230437082166000,20.700166015625,9.471494674682617,2.539165735244751,0.11754198372364044
1773230437098157600,20.716157470703124,9.466798782348633,2.5579116344451904,0.08483341336250305
1773230437114178800,20.7321787109375,9.466259002685547,2.5600671768188477,0.07991170883178711
1773230437130170600,20.748170654296874,9.467538833618164,2.5551321506500244,0.0859617292881012
1773230437146162700,20.76416259765625,9.469820976257324,2.5464558601379395,0.09186697006225586
1773230437162183000,20.780182861328125,9.472769737243652,2.5355472564697266,0.08955606073141098
1773230437178174200,20.79617431640625,9.475872993469238,2.524507522583008,0.07125350832939148
1773230437194165500,20.81216552734375,9.478971481323242,2.513054370880127,0.06361081451177597
1773230437210157800,20.82815771484375,9.479825973510742,2.509516477584839,0.07494272291660309
1773230437226179800,20.844179931640625,9.4808988571167,2.5048751831054688,0.09254121780395508
1773230437242169300,20.86016943359375,9.485322952270508,2.4873995780944824,0.1089320108294487
1773230437258162700,20.87616259765625,9.49006175994873,2.4689507484436035,0.11569485813379288
1773230437274184200,20.89218408203125,9.490194320678711,2.4682397842407227,0.11992840468883514
1773230437290176300,20.90817626953125,9.487504005432129,2.4783058166503906,0.12513141334056854
1773230437306166800,20.924166748046876,9.485858917236328,2.484623432159424,0.12455324828624725
1773230437322157000,20.940156982421875,9.487126350402832,2.4799695014953613,0.120753712952137
1773230437338177000,20.956177001953126,9.490213394165039,2.467595338821411,0.13116934895515442
1773230437354170000,20.972170166015626,9.493350982666016,2.4543893337249756,0.15047405660152435
1773230437370161000,20.988160888671874,9.494682312011719,2.448749303817749,0.15815961360931396
1773230437386184000,21.004183837890626,9.495841026306152,2.445051670074463,0.14531637728214264
