time,seconds_elapsed,z,y,x
1773230417054164500,0.67216455078125,0.021380282938480377,-0.004886921960860491,-0.02382374368607998
1773230417070187500,0.6881875,0.021380282938480377,-0.004886921960860491,-0.02382374368607998
1773230417086178300,0.70417822265625,0.021380282938480377,-0.004886921960860491,-0.02382374368607998
1773230417102168000,0.72016796875,0.021380282938480377,-0.004886921960860491,-0.02382374368607998
1773230417118190800,0.73619091796875,0.021380282938480377,-0.004886921960860491,-0.02382374368607998
1773230417134180400,0.752180419921875,0.021380282938480377,-0.004886921960860491,-0.02382374368607998
1773230417150174200,0.76817431640625,-0.02015855349600315,-0.036041051149368286,0.02015855349600315
1773230417166195700,0.78419580078125,-0.060475658625364304,-0.018936822190880775,0.04948008432984352
1773230417182184200,0.80018408203125,-0.09285151958465576,-0.021380282938480377,0.04703662544488907
1773230417198176000,0.816176025390625,-0.10812314599752426,-0.028099801391363144,0.019547687843441963
1773230417214168600,0.83216845703125,-0.08185594528913498,-0.01710422709584236,-0.02015855349600315
1773230417230191900,0.84819189453125,-0.04398229718208313,-0.016493361443281174,-0.030543262138962746
1773230417286190600,0.904190673828125,0.07269296050071716,-0.00366519158706069,0.0507018156349659
1773230417302180000,0.92018017578125,0.07635815441608429,-0.00855211354792118,-0.016493361443281174
1773230417318172700,0.936172607421875,0.056810468435287476,-0.05925392732024193,-0.10262536257505417
1773230417334193200,0.952193115234375,0.028099801391363144,-0.0708603709936142,-0.14294247329235077
1773230417350186800,0.968186767578125,0.00427605677396059,-0.024434609338641167,-0.13927727937698364
1773230417366177500,0.984177490234375,0.0024434609804302454,0.012828170321881771,-0.1215621829032898
1773230417382167300,1.000167236328125,0.01466076634824276,0.021991148591041565,-0.10690141469240189
1773230417398167300,1.016167236328125,0.028099801391363144,0.00366519158706069,-0.08674286305904388
1773230417414181000,1.03218115234375,0.031154127791523933,0.02687807008624077,-0.059864792972803116
1773230417430172700,1.048172607421875,0.02871066704392433,0.04398229718208313,-0.031154127791523933
1773230417446194200,1.064194091796875,0.025656340643763542,0.05314527451992035,-0.0006108652451075613
1773230417462186500,1.0801865234375,0.015882495790719986,0.06230825558304787,0.022602014243602753
1773230417478174700,1.0961748046875,0.012217304669320583,0.06658431142568588,0.013439035043120384
1773230417494166800,1.112166748046875,0.018325956538319588,0.04703662544488907,-0.025045474991202354
1773230417510190300,1.1281904296875,0.015882495790719986,0.012217304669320583,-0.0708603709936142
1773230417526180600,1.1441806640625,0.003054326167330146,-0.015882495790719986,-0.09468411654233932
1773230417542171600,1.160171630859375,-0.01038470957428217,-0.01710422709584236,-0.08246681094169617
1773230417558193700,1.176193603515625,-0.016493361443281174,0.00366519158706069,-0.02015855349600315
1773230417574183200,1.19218310546875,-0.015271631069481373,0.03787364438176155,0.05742133408784866
1773230417590174700,1.2081748046875,0.006108652334660292,0.09162978827953339,0.13866640627384186
1773230417606165200,1.224165283203125,0.016493361443281174,0.1062905490398407,0.1765400618314743
1773230417622187500,1.2401875,0.00855211354792118,0.09224065393209457,0.20402899384498596
1773230417638178800,1.2561787109375,-0.02076941914856434,0.05375614017248154,0.2535090744495392
1773230417654171400,1.27217138671875,-0.08124507963657379,-0.006108652334660292,0.37140607833862305
1773230417670194200,1.288194091796875,-0.13805554807186127,-0.01466076634824276,0.4911356568336487
1773230417686184700,1.304184814453125,-0.14782938361167908,0.1160643994808197,0.5674937963485718
1773230417702174200,1.32017431640625,-0.10690141469240189,0.1472185254096985,0.5528330206871033
1773230417718197800,1.33619775390625,0.10751228034496307,0.4612032473087311,0.4092797040939331
1773230417734188800,1.352188720703125,0.09773843735456467,0.3787364661693573,0.35552358627319336
1773230417750179800,1.368179931640625,-0.015882495790719986,0.5021312236785889,0.25595253705978394
1773230417766169000,1.384169189453125,-0.027488935738801956,0.5216789245605469,0.22479841113090515
1773230417782191000,1.400191162109375,0.033597588539123535,0.4086688458919525,0.15943582355976105
1773230417798184200,1.41618408203125,0.05925392732024193,0.16310101747512817,0.07024950534105301
1773230417814173200,1.432173095703125,-0.004886921960860491,0.018936822190880775,-0.06841690838336945
1773230417830198000,1.448197998046875,-0.07696902006864548,-0.00427605677396059,-0.1716531366109848
1773230417846188300,1.464188232421875,-0.05314527451992035,-0.003054326167330146,-0.21135938167572021
1773230417862177800,1.480177734375,-0.007941247895359993,-0.051312681287527084,-0.21563543379306793
1773230417878168800,1.4961689453125,0.003054326167330146,-0.07330382615327835,-0.21319197118282318
1773230417894192400,1.5121923828125,-0.018936822190880775,-0.02871066704392433,-0.19303341209888458
1773230417910185000,1.52818505859375,-0.006719517521560192,0.036041051149368286,-0.1258382350206375
1773230417926174700,1.5441748046875,0.018936822190880775,0.06719517707824707,-0.04764748737215996
1773230417942197000,1.560197021484375,0.02871066704392433,0.060475658625364304,0.04459316283464432
1773230417958186000,1.57618603515625,0.02382374368607998,0.059864792972803116,0.0910189226269722
1773230417974177000,1.592177001953125,0.015271631069481373,0.03420845419168472,0.10690141469240189
1773230417990171400,1.60817138671875,0.00366519158706069,-0.04459316283464432,0.08246681094169617
1773230418006193700,1.624193603515625,0.003054326167330146,-0.10690141469240189,0.014049900695681572
1773230418022182100,1.64018212890625,0.00366519158706069,-0.11667526513338089,-0.07024950534105301
1773230418038174700,1.6561748046875,0.014049900695681572,-0.10445795953273773,-0.15943582355976105
1773230418054194200,1.672194091796875,0.025045474991202354,-0.10567969083786011,-0.19608774781227112
1773230418070187800,1.688187744140625,0.04581489413976669,-0.05253441259264946,-0.18631389737129211
1773230418086177000,1.704177001953125,0.08918632566928864,0.039706241339445114,-0.1563815027475357
1773230418102168300,1.720168212890625,0.14966198801994324,0.027488935738801956,-0.1319468915462494
1773230418118192600,1.736192626953125,0.15943582355976105,-0.03481931984424591,-0.1215621829032898
1773230418134181000,1.75218115234375,0.12461651116609573,-0.12767083942890167,-0.12828169763088226
1773230418150173700,1.768173583984375,0.08674286305904388,-0.11484266817569733,-0.1362229436635971
1773230418166195500,1.784195556640625,0.051312681287527084,-0.10812314599752426,-0.11362093687057495
1773230418182185500,1.800185546875,0.036651913076639175,-0.06902777403593063,-0.07330382615327835
1773230418198178600,1.816178466796875,0.014049900695681572,-0.11056660860776901,-0.01038470957428217
1773230418214167600,1.83216748046875,0.007941247895359993,-0.06169738993048668,0.018936822190880775
1773230418230191600,1.848191650390625,0.00427605677396059,0.0354301854968071,0.04092797264456749
1773230418246180900,1.864180908203125,-0.001832595793530345,0.03298672288656235,0.07391469180583954
1773230418262172400,1.88017236328125,-0.00855211354792118,-0.00427605677396059,0.08002334833145142
1773230418278194200,1.896194091796875,-0.018325956538319588,-0.03237585723400116,0.05375614017248154
1773230418294185200,1.912185302734375,0.00733038317412138,-0.06169738993048668,-0.012217304669320583
1773230418310178800,1.9281787109375,0.012828170321881771,-0.10506882518529892,-0.051312681287527084
1773230418326169300,1.94416943359375,-0.015271631069481373,-0.1270599663257599,-0.05803219974040985
1773230418342189300,1.960189208984375,-0.04948008432984352,-0.1160643994808197,-0.025656340643763542
1773230418358182400,1.976182373046875,-0.08552113175392151,-0.10751228034496307,0.015882495790719986
1773230418374172700,1.992172607421875,-0.10506882518529892,-0.08307767659425735,0.04153883829712868
1773230418390193400,2.008193359375,-0.12522737681865692,-0.03176499158143997,0.07452555745840073
1773230418406187500,2.0241875,-0.12095131725072861,-0.010995574295520782,0.11484266817569733
1773230418422175700,2.04017578125,-0.07941248267889023,0.0024434609804302454,0.14782938361167908
1773230418438167800,2.056167724609375,-0.029932396486401558,0.02871066704392433,0.11850785464048386
1773230418454191400,2.07219140625,-0.0024434609804302454,0.07880161702632904,0.05619960278272629
1773230418470181600,2.088181640625,-0.001832595793530345,0.028099801391363144,0.03176499158143997
1773230418486173000,2.1041728515625,-0.016493361443281174,-0.03848451003432274,0.0006108652451075613
1773230418502193700,2.120193603515625,-0.02015855349600315,-0.05192354694008827,-0.02871066704392433
1773230418518184200,2.13618408203125,-0.01710422709584236,-0.03420845419168472,-0.02382374368607998
1773230418534178600,2.152178466796875,-0.014049900695681572,-0.02076941914856434,-0.00366519158706069
1773230418550199800,2.16819970703125,0.003054326167330146,-0.019547687843441963,-0.009773843921720982
1773230418566190300,2.1841904296875,0.015271631069481373,-0.01771509274840355,-0.02076941914856434
1773230418582180900,2.200180908203125,0.03787364438176155,-0.04764748737215996,-0.04581489413976669
1773230418598172700,2.216172607421875,0.027488935738801956,-0.05497787147760391,-0.059864792972803116
1773230418614193000,2.23219287109375,0.027488935738801956,-0.059864792972803116,-0.06108652427792549
1773230418630186000,2.24818603515625,0.036041051149368286,-0.06780604273080826,-0.056810468435287476
1773230418646176500,2.264176513671875,0.03481931984424591,-0.10323622822761536,-0.042760565876960754
1773230418662197200,2.280197265625,0.04153883829712868,-0.09162978827953339,-0.04948008432984352
1773230418678187500,2.2961875,0.030543262138962746,-0.042760565876960754,-0.02626720629632473
1773230418694181400,2.312181396484375,0.012217304669320583,0.00733038317412138,0.01710422709584236
1773230418710173000,2.3281728515625,0.009773843921720982,0.018936822190880775,0.05742133408784866
1773230418726194000,2.34419384765625,0.013439035043120384,-0.018936822190880775,0.04398229718208313
1773230418742184700,2.360184814453125,0.013439035043120384,-0.05253441259264946,-0.012217304669320583
1773230418758175200,2.37617529296875,0.009773843921720982,-0.03787364438176155,-0.03787364438176155
1773230418774197200,2.392197265625,0.00855211354792118,-0.01038470957428217,-0.015271631069481373
1773230418790190600,2.408190673828125,0.018936822190880775,0.004886921960860491,0
1773230418806180900,2.424180908203125,0.033597588539123535,0.00366519158706069,-0.018936822190880775
1773230418822172000,2.440171875,0.03787364438176155,0,-0.03420845419168472
1773230418838193000,2.45619287109375,0.039095375686883926,0.00733038317412138,-0.02932153269648552
1773230418854184000,2.472183837890625,0.036041051149368286,-0.00427605677396059,-0.02015855349600315
1773230418870177000,2.488177001953125,0.022602014243602753,-0.01771509274840355,-0.018325956538319588
1773230418886199000,2.504198974609375,0.02321287989616394,-0.036041051149368286,-0.01771509274840355
1773230418902187500,2.5201875,0.025656340643763542,-0.05009094998240471,-0.02871066704392433
1773230418918178300,2.53617822265625,0.012828170321881771,-0.04642575979232788,-0.03726277872920036
1773230418934172700,2.552172607421875,-0.003054326167330146,-0.01710422709584236,-0.03176499158143997
1773230418950193200,2.568193115234375,0.007941247895359993,0.007941247895359993,-0.027488935738801956
1773230418966182400,2.584182373046875,0.029932396486401558,-0.02382374368607998,-0.045204028487205505
1773230418982174000,2.600174072265625,0.04459316283464432,-0.06475171446800232,-0.08002334833145142
1773230418998197000,2.616197021484375,0.02871066704392433,-0.02932153269648552,-0.09712757170200348
1773230419014188000,2.63218798828125,0.01038470957428217,0.042760565876960754,-0.05009094998240471
1773230419030179300,2.648179443359375,0.07147123664617538,0.15515977144241333,0.04764748737215996
1773230419046171000,2.6641708984375,0.08796459436416626,0.18020524084568024,0.12461651116609573
1773230419062192000,2.680192138671875,0.07880161702632904,0.09834930300712585,0.04581489413976669
1773230419078183200,2.69618310546875,0.054367005825042725,-0.005497787147760391,-0.05009094998240471
1773230419094175200,2.71217529296875,0.05314527451992035,-0.02932153269648552,-0.11850785464048386
1773230419110198500,2.728198486328125,0.0507018156349659,-0.03237585723400116,-0.1258382350206375
1773230419126189300,2.744189208984375,0.04092797264456749,-0.02382374368607998,-0.10690141469240189
1773230419142179600,2.7601796875,0.02687807008624077,-0.010995574295520782,-0.07147123664617538
1773230419158169300,2.77616943359375,0.021991148591041565,0.06536258012056351,-0.003054326167330146
1773230419174193400,2.792193359375,0.05253441259264946,0.1508837193250656,0.04703662544488907
1773230419190184700,2.808184814453125,0.07330382615327835,0.16310101747512817,0.07880161702632904
1773230419206175200,2.82417529296875,0.054367005825042725,0.09407325088977814,0.05925392732024193
1773230419222195700,2.84019580078125,0.012217304669320583,0.004886921960860491,0.021380282938480377
1773230419238187000,2.85618701171875,-0.0006108652451075613,0.022602014243602753,0.018325956538319588
1773230419254176800,2.8721767578125,0.01160643994808197,0.03787364438176155,0.06536258012056351
1773230419270171100,2.888171142578125,0.00733038317412138,0.02321287989616394,0.08979719132184982
1773230419286192600,2.904192626953125,0.0024434609804302454,-0.025656340643763542,0.05742133408784866
1773230419302183400,2.920183349609375,0.00427605677396059,-0.06719517707824707,-0.0006108652451075613
1773230419318172700,2.936172607421875,0.009162978269159794,-0.08124507963657379,-0.03420845419168472
1773230419334195700,2.95219580078125,0.007941247895359993,-0.08735372871160507,-0.02015855349600315
1773230419350189300,2.968189208984375,0.014049900695681572,-0.09224065393209457,-0.031154127791523933
1773230419366179800,2.984179931640625,0.022602014243602753,-0.04337143152952194,-0.039706241339445114
1773230419382170000,3.000170166015625,0.031154127791523933,0.00733038317412138,-0.016493361443281174
1773230419398191400,3.01619140625,0.03420845419168472,0.00733038317412138,-0.015271631069481373
1773230419414182700,3.0321826171875,0.03787364438176155,-0.00855211354792118,-0.03176499158143997
1773230419430173700,3.048173583984375,0.025656340643763542,-0.02932153269648552,-0.019547687843441963
1773230419446194700,3.064194580078125,0.005497787147760391,-0.015882495790719986,-0.00366519158706069
1773230419462187000,3.08018701171875,-0.00733038317412138,-0.019547687843441963,-0.00855211354792118
1773230419478177300,3.09617724609375,0.003054326167330146,-0.06780604273080826,-0.04459316283464432
1773230419494170000,3.112170166015625,0.00366519158706069,-0.11423180252313614,-0.09040805697441101
1773230419510192600,3.128192626953125,0.009162978269159794,-0.08918632566928864,-0.0959058403968811
1773230419526182700,3.1441826171875,0.016493361443281174,-0.0354301854968071,-0.06169738993048668
1773230419542173700,3.160173583984375,0.021991148591041565,-0.05253441259264946,-0.03237585723400116
1773230419558193700,3.176193603515625,0.01038470957428217,-0.06719517707824707,-0.036041051149368286
1773230419574184700,3.192184814453125,-0.004886921960860491,-0.06841690838336945,-0.05314527451992035
1773230419590177300,3.20817724609375,-0.001832595793530345,-0.10018189996480942,-0.0757472887635231
1773230419606199000,3.224198974609375,-0.003054326167330146,-0.12461651116609573,-0.0910189226269722
1773230419622189300,3.240189208984375,-0.012217304669320583,-0.15271630883216858,-0.10690141469240189
1773230419638182100,3.25618212890625,-0.033597588539123535,-0.1362229436635971,-0.1111774742603302
1773230419654173400,3.27217333984375,-0.02871066704392433,-0.08307767659425735,-0.09040805697441101
1773230419670196700,3.28819677734375,0.022602014243602753,-0.08857546001672745,-0.014049900695681572
1773230419686186200,3.304186279296875,0.010995574295520782,-0.07024950534105301,0.04459316283464432
1773230419702177800,3.320177734375,0.009773843921720982,-0.039095375686883926,0.04214970022439957
1773230419718199600,3.336199462890625,0.004886921960860491,-0.05375614017248154,0.006108652334660292
1773230419734188300,3.352188232421875,0.012217304669320583,-0.05803219974040985,-0.00855211354792118
1773230419750183400,3.368183349609375,0.01710422709584236,-0.05192354694008827,-0.0012217304902151227
1773230419766170600,3.384170654296875,0.018325956538319588,-0.014049900695681572,0.005497787147760391
1773230419782193200,3.400193115234375,0.021380282938480377,-0.0024434609804302454,-0.00855211354792118
1773230419798184200,3.41618408203125,0.019547687843441963,-0.021380282938480377,-0.01466076634824276
1773230419814177000,3.432177001953125,0.003054326167330146,-0.016493361443281174,-0.003054326167330146
1773230419830199300,3.44819921875,-0.006108652334660292,0.02321287989616394,0.0012217304902151227
1773230419846189600,3.464189453125,0.006719517521560192,0.028099801391363144,0.001832595793530345
1773230419862181400,3.480181396484375,0.019547687843441963,0.00855211354792118,0.015882495790719986
1773230419878170600,3.496170654296875,-0.0006108652451075613,0.029932396486401558,0.03420845419168472
1773230419894195700,3.51219580078125,-0.00366519158706069,0.05497787147760391,0.0354301854968071
1773230419910185700,3.528185791015625,0.012217304669320583,0.02321287989616394,0.01771509274840355
1773230419926176800,3.5441767578125,0.018325956538319588,-0.012217304669320583,-0.003054326167330146
1773230419942197500,3.560197509765625,0,-0.00427605677396059,-0.012217304669320583
1773230419958187500,3.5761875,0.00427605677396059,0.02076941914856434,-0.0024434609804302454
1773230419974179300,3.592179443359375,0.015271631069481373,0.001832595793530345,0.00855211354792118
1773230419990173400,3.60817333984375,0.01771509274840355,-0.02076941914856434,-0.009162978269159794
1773230420006193700,3.624193603515625,0.036651913076639175,-0.019547687843441963,-0.04459316283464432
1773230420022184700,3.640184814453125,0.04398229718208313,-0.009162978269159794,-0.04764748737215996
1773230420038177000,3.656177001953125,0.031154127791523933,-0.00366519158706069,-0.029932396486401558
1773230420054198500,3.672198486328125,0,-0.006719517521560192,-0.01466076634824276
1773230420070188800,3.688188720703125,-0.013439035043120384,-0.02687807008624077,0.019547687843441963
1773230420086179800,3.704179931640625,-0.005497787147760391,-0.0403171069920063,0.028099801391363144
1773230420102172000,3.720171875,0.001832595793530345,-0.027488935738801956,0.0024434609804302454
1773230420118193700,3.736193603515625,0.00366519158706069,0.009773843921720982,-0.021991148591041565
1773230420134183200,3.75218310546875,0.012828170321881771,0.03848451003432274,-0.016493361443281174
1773230420150176500,3.768176513671875,0.029932396486401558,-0.001832595793530345,-0.018325956538319588
1773230420166197500,3.784197509765625,0.04337143152952194,-0.07696902006864548,-0.056810468435287476
1773230420182187300,3.800187255859375,0.03237585723400116,-0.0806342139840126,-0.07269296050071716
1773230420198178300,3.81617822265625,0.025656340643763542,0.01466076634824276,-0.012828170321881771
1773230420214169600,3.832169677734375,0.03481931984424591,0.05009094998240471,0.051312681287527084
1773230420230193400,3.848193359375,0.03298672288656235,-0.006108652334660292,0.0403171069920063
1773230420246184200,3.86418408203125,0.009773843921720982,-0.02321287989616394,-0.003054326167330146
1773230420262174000,3.880174072265625,0.004886921960860491,0.006108652334660292,0.0006108652451075613
1773230420278196500,3.896196533203125,0.012828170321881771,0.010995574295520782,0.018936822190880775
1773230420294188500,3.9121884765625,0.013439035043120384,-0.025656340643763542,0.01771509274840355
1773230420310181400,3.928181396484375,0.01771509274840355,-0.014049900695681572,0.016493361443281174
1773230420326171600,3.944171630859375,0.02871066704392433,0.016493361443281174,0.03176499158143997
1773230420342193000,3.96019287109375,0.029932396486401558,0.03176499158143997,0.04153883829712868
1773230420358183000,3.976182861328125,0.013439035043120384,0.04764748737215996,0.04459316283464432
1773230420374176300,3.99217626953125,0.005497787147760391,0.08796459436416626,0.0806342139840126
1773230420390198300,4.0081982421875,0.02687807008624077,0.13011430203914642,0.1466076523065567
1773230420406188000,4.02418798828125,0.02626720629632473,0.11667526513338089,0.1368338167667389
1773230420422178600,4.040178466796875,0.009162978269159794,0.07269296050071716,0.05742133408784866
1773230420438170000,4.056170166015625,-0.014049900695681572,0.05375614017248154,0.024434609338641167
1773230420454192400,4.0721923828125,-0.014049900695681572,0.056810468435287476,0.05803219974040985
1773230420470184400,4.088184326171875,-0.00366519158706069,0.03481931984424591,0.09162978827953339
1773230420486174000,4.104174072265625,-0.007941247895359993,0.02076941914856434,0.06841690838336945
1773230420502195000,4.12019482421875,-0.01038470957428217,0.01771509274840355,0.03787364438176155
1773230420518186500,4.1361865234375,-0.018936822190880775,0.016493361443281174,0.0012217304902151227
1773230420534177500,4.152177490234375,-0.03787364438176155,0.01710422709584236,-0.0024434609804302454
1773230420550201000,4.168201171875,-0.01038470957428217,0.006108652334660292,0.024434609338641167
1773230420566193400,4.184193359375,0.006719517521560192,-0.02076941914856434,0.025656340643763542
1773230420582182100,4.20018212890625,0.005497787147760391,-0.019547687843441963,-0.024434609338641167
1773230420598173200,4.216173095703125,0.01038470957428217,-0.003054326167330146,-0.03787364438176155
1773230420614194200,4.232194091796875,0.015271631069481373,-0.0024434609804302454,-0.021380282938480377
1773230420630188300,4.248188232421875,0.006719517521560192,-0.01038470957428217,-0.009773843921720982
1773230420646179000,4.264178955078125,0.015882495790719986,0.0024434609804302454,-0.005497787147760391
1773230420662198800,4.28019873046875,0.014049900695681572,-0.009162978269159794,0.006108652334660292
1773230420678189600,4.296189453125,-0.00427605677396059,-0.014049900695681572,0.0012217304902151227
1773230420694181600,4.312181640625,0.0024434609804302454,0.010995574295520782,0.0006108652451075613
1773230420710174200,4.32817431640625,-0.0024434609804302454,0.006719517521560192,0.0024434609804302454
1773230420726194200,4.344194091796875,-0.019547687843441963,-0.00366519158706069,-0.013439035043120384
1773230420742185200,4.360185302734375,-0.003054326167330146,0.007941247895359993,-0.025045474991202354
1773230420758178300,4.37617822265625,0.018936822190880775,-0.010995574295520782,-0.03176499158143997
1773230420774198000,4.392197998046875,0.02626720629632473,-0.03726277872920036,-0.042760565876960754
1773230420790191600,4.408191650390625,0.02015855349600315,-0.013439035043120384,-0.03176499158143997
1773230420806181600,4.424181640625,0.021380282938480377,0.005497787147760391,-0.015271631069481373
1773230420822174000,4.440174072265625,0.018936822190880775,-0.00427605677396059,-0.010995574295520782
1773230420838193700,4.456193603515625,0.00855211354792118,-0.003054326167330146,0
1773230420854187800,4.472187744140625,-0.001832595793530345,-0.00427605677396059,0.021991148591041565
1773230420870178600,4.488178466796875,-0.0024434609804302454,0.009773843921720982,0.024434609338641167
1773230420886197500,4.504197509765625,-0.00855211354792118,0.016493361443281174,0.019547687843441963
1773230420902189300,4.520189208984375,0.00427605677396059,0.01160643994808197,0.028099801391363144
1773230420918180900,4.536180908203125,0.005497787147760391,0.0006108652451075613,0.025045474991202354
1773230420934174500,4.552174560546875,0.006108652334660292,-0.0006108652451075613,0.01466076634824276
1773230420950195500,4.568195556640625,0.02015855349600315,0.001832595793530345,0.00855211354792118
1773230420966186800,4.584186767578125,0.030543262138962746,-0.0006108652451075613,-0.014049900695681572
1773230420982175700,4.60017578125,0.02687807008624077,0.0024434609804302454,-0.00427605677396059
1773230420998197200,4.616197265625,0.03237585723400116,0.015271631069481373,0.018936822190880775
1773230421014188300,4.632188232421875,0.009162978269159794,0.009773843921720982,0.007941247895359993
1773230421030183000,4.648182861328125,0.0012217304902151227,0.03298672288656235,0.022602014243602753
1773230421046174000,4.664174072265625,0.02321287989616394,0.03848451003432274,0.06108652427792549
1773230421062195700,4.68019580078125,0.01466076634824276,-0.009162978269159794,0.05253441259264946
1773230421078186000,4.69618603515625,-0.019547687843441963,0.0012217304902151227,0.00427605677396059
1773230421094177000,4.712177001953125,0.003054326167330146,0.04398229718208313,0.00733038317412138
1773230421110197500,4.728197509765625,0.028099801391363144,-0.010995574295520782,0.03420845419168472
1773230421126190000,4.744190185546875,0.0024434609804302454,-0.05192354694008827,0.00427605677396059
1773230421142180400,4.760180419921875,-0.01466076634824276,-0.001832595793530345,-0.015271631069481373
1773230421158172400,4.77617236328125,-0.006108652334660292,0.04214970022439957,0.02626720629632473
1773230421174193000,4.79219287109375,-0.00366519158706069,-0.005497787147760391,0.0507018156349659
1773230421190186000,4.80818603515625,-0.01710422709584236,-0.042760565876960754,-0.001832595793530345
1773230421206174700,4.8241748046875,0.00427605677396059,-0.00855211354792118,-0.02687807008624077
1773230421222197000,4.840197021484375,0.02015855349600315,0.010995574295520782,0.016493361443281174
1773230421238187800,4.856187744140625,-0.012828170321881771,0.012828170321881771,0.024434609338641167
1773230421254180400,4.872180419921875,-0.018936822190880775,0.003054326167330146,-0.02015855349600315
1773230421270173200,4.888173095703125,0.01771509274840355,-0.019547687843441963,-0.025656340643763542
1773230421286194400,4.9041943359375,0.018325956538319588,-0.022602014243602753,0.013439035043120384
1773230421302184400,4.920184326171875,-0.00855211354792118,-0.0012217304902151227,0.030543262138962746
1773230421318174500,4.936174560546875,0.0012217304902151227,0.022602014243602753,0.0006108652451075613
1773230421334196000,4.952196044921875,0.00733038317412138,0.03481931984424591,0.007941247895359993
1773230421350188800,4.968188720703125,-0.0024434609804302454,0.018936822190880775,0.042760565876960754
1773230421366182100,4.98418212890625,-0.01771509274840355,0.006719517521560192,0.024434609338641167
1773230421382172200,5.000172119140625,-0.018936822190880775,0.01771509274840355,-0.015271631069481373
1773230421398193200,5.016193115234375,-0.01710422709584236,0.015882495790719986,-0.003054326167330146
1773230421414183000,5.032182861328125,-0.0024434609804302454,-0.007941247895359993,0.02932153269648552
1773230421430175700,5.04817578125,-0.01160643994808197,-0.01466076634824276,0.02687807008624077
1773230421446195500,5.064195556640625,-0.006108652334660292,0.031154127791523933,0.009773843921720982
1773230421462188800,5.080188720703125,0.0012217304902151227,0.042760565876960754,-0.003054326167330146
1773230421478180000,5.09618017578125,0.030543262138962746,0.019547687843441963,-0.00733038317412138
1773230421494169300,5.11216943359375,0.0403171069920063,-0.0012217304902151227,0.00366519158706069
1773230421510194700,5.128194580078125,0.024434609338641167,0.01466076634824276,-0.003054326167330146
1773230421526185500,5.144185546875,0.014049900695681572,0.0354301854968071,-0.00366519158706069
1773230421542174700,5.1601748046875,0.013439035043120384,0.03237585723400116,0.02626720629632473
1773230421558196000,5.176196044921875,-0.016493361443281174,-0.01038470957428217,0.07269296050071716
1773230421574187000,5.19218701171875,-0.03176499158143997,-0.009162978269159794,0.07024950534105301
1773230421590180000,5.20818017578125,-0.02871066704392433,0.036041051149368286,0.04581489413976669
1773230421606169600,5.224169677734375,-0.005497787147760391,0.04581489413976669,0.012828170321881771
1773230421622192400,5.2401923828125,0.02321287989616394,-0.004886921960860491,-0.021991148591041565
1773230421638182400,5.256182373046875,0.015882495790719986,-0.030543262138962746,-0.02626720629632473
1773230421654175200,5.27217529296875,-0.00366519158706069,-0.01771509274840355,-0.012828170321881771
1773230421670198300,5.2881982421875,-0.009162978269159794,0.012217304669320583,0.00427605677396059
1773230421686186200,5.304186279296875,-0.004886921960860491,0.018936822190880775,0.019547687843441963
1773230421702179600,5.3201796875,0.00427605677396059,-0.01038470957428217,0.02321287989616394
1773230421718201900,5.336201904296875,0.00733038317412138,-0.007941247895359993,-0.01038470957428217
1773230421734194000,5.35219384765625,0.001832595793530345,0.03176499158143997,-0.02015855349600315
1773230421750184700,5.368184814453125,0.012217304669320583,0.03787364438176155,0.018936822190880775
1773230421766174500,5.384174560546875,-0.001832595793530345,0.01466076634824276,0.04886921867728233
1773230421782197500,5.400197509765625,-0.018325956538319588,0.01771509274840355,0.039095375686883926
1773230421798187300,5.416187255859375,-0.001832595793530345,0.021380282938480377,0.04581489413976669
1773230421814178600,5.432178466796875,0.033597588539123535,0.021380282938480377,0.03848451003432274
1773230421830201900,5.448201904296875,0.03298672288656235,-0.00427605677396059,0.006719517521560192
1773230421846191900,5.46419189453125,0.030543262138962746,-0.0006108652451075613,-0.0354301854968071
1773230421862183400,5.480183349609375,0.02076941914856434,0.018936822190880775,-0.0012217304902151227
1773230421878173700,5.496173583984375,0.02321287989616394,0.01466076634824276,0.0757472887635231
1773230421894197800,5.51219775390625,0.012828170321881771,0.018936822190880775,0.1007927656173706
1773230421910187300,5.528187255859375,-0.009773843921720982,0.05192354694008827,0.09896016865968704
1773230421926179800,5.544179931640625,-0.02015855349600315,0.039706241339445114,0.12095131725072861
1773230421942199300,5.56019921875,0.003054326167330146,0.01160643994808197,0.13988813757896423
1773230421958192600,5.576192626953125,0.009162978269159794,0.018936822190880775,0.07269296050071716
1773230421974182000,5.592181884765625,-0.001832595793530345,0.004886921960860491,-0.0403171069920063
1773230421990174500,5.608174560546875,0.010995574295520782,-0.01038470957428217,-0.04642575979232788
1773230422006195700,5.62419580078125,0.00733038317412138,-0.024434609338641167,0.031154127791523933
1773230422022185500,5.640185546875,-0.012217304669320583,-0.015271631069481373,0.03481931984424591
1773230422038176500,5.656176513671875,-0.01466076634824276,0.014049900695681572,-0.001832595793530345
1773230422054198500,5.672198486328125,0.004886921960860491,-0.02076941914856434,0.00855211354792118
1773230422070192400,5.6881923828125,-0.01710422709584236,-0.05253441259264946,0.00733038317412138
1773230422086180400,5.704180419921875,-0.016493361443281174,-0.009162978269159794,-0.05375614017248154
1773230422102172000,5.720171875,0.01160643994808197,-0.015882495790719986,-0.07391469180583954
1773230422118194400,5.7361943359375,0.04153883829712868,-0.05864306539297104,-0.05742133408784866
1773230422134184700,5.752184814453125,0.031154127791523933,-0.06963863968849182,-0.05314527451992035
1773230422150178600,5.768178466796875,0.022602014243602753,-0.02321287989616394,-0.036651913076639175
1773230422166199600,5.784199462890625,0.01038470957428217,0.018936822190880775,0.02871066704392433
1773230422182190600,5.800190673828125,-0.003054326167330146,0.02382374368607998,0.05192354694008827
1773230422198180900,5.816180908203125,0.009773843921720982,-0.01710422709584236,0.01710422709584236
1773230422214173000,5.8321728515625,0.010995574295520782,-0.012828170321881771,-0.021991148591041565
1773230422230195700,5.84819580078125,0.01160643994808197,0.010995574295520782,0.02015855349600315
1773230422246185500,5.864185546875,0.013439035043120384,0.030543262138962746,0.07269296050071716
1773230422262176000,5.880176025390625,-0.01771509274840355,-0.021380282938480377,0.07696902006864548
1773230422278198300,5.8961982421875,-0.01466076634824276,-0.04153883829712868,0.04703662544488907
1773230422294119400,5.912119384765625,0.00427605677396059,-0.045204028487205505,0.021380282938480377
1773230422310113000,5.928113037109375,0.013439035043120384,-0.02687807008624077,0.01038470957428217
1773230422326140200,5.94414013671875,0.015271631069481373,0.006719517521560192,-0.01771509274840355
1773230422342123800,5.960123779296875,0.015271631069481373,0.006719517521560192,-0.01771509274840355
1773230422358115000,5.976114990234375,0.015271631069481373,0.006719517521560192,-0.01771509274840355
1773230422374107600,5.992107666015625,0.015271631069481373,0.006719517521560192,-0.01771509274840355
1773230422390130700,6.008130615234375,0.015271631069481373,0.006719517521560192,-0.01771509274840355
1773230422406120200,6.0241201171875,0.015271631069481373,0.006719517521560192,-0.01771509274840355
1773230422422112000,6.040112060546875,0.015271631069481373,0.006719517521560192,-0.01771509274840355
1773230422438132200,6.05613232421875,0.015271631069481373,0.006719517521560192,-0.01771509274840355
1773230422454124800,6.072124755859375,0.015271631069481373,0.006719517521560192,-0.01771509274840355
1773230422470116000,6.0881162109375,0.0012217304902151227,-0.024434609338641167,-0.021991148591041565
1773230422486106600,6.104106689453125,0.01038470957428217,-0.01771509274840355,-0.00366519158706069
1773230422502128400,6.12012841796875,0.007941247895359993,-0.005497787147760391,0.015271631069481373
1773230422518120200,6.1361201171875,0.003054326167330146,0.0006108652451075613,-0.001832595793530345
1773230422534109400,6.152109375,-0.0012217304902151227,0.004886921960860491,-0.02626720629632473
1773230422550133200,6.16813330078125,-0.006108652334660292,-0.01160643994808197,-0.018325956538319588
1773230422566124000,6.1841240234375,0.021380282938480377,-0.03176499158143997,-0.029932396486401558
1773230422582114600,6.200114501953125,0.04398229718208313,-0.05192354694008827,-0.0555887371301651
1773230422598104800,6.216104736328125,0.027488935738801956,-0.06352998316287994,-0.06291911751031876
1773230422614126300,6.232126220703125,0.01160643994808197,-0.009162978269159794,-0.02687807008624077
1773230422630119000,6.248118896484375,-0.0024434609804302454,0.0354301854968071,0.05009094998240471
1773230422646111000,6.264111083984375,-0.009162978269159794,0.018936822190880775,0.08979719132184982
1773230422662100500,6.2801005859375,-0.04398229718208313,0.00366519158706069,0.04459316283464432
1773230422678122200,6.296122314453125,-0.03298672288656235,0.018325956538319588,0.001832595793530345
1773230422694114600,6.312114501953125,0.01038470957428217,0.039095375686883926,-0.009162978269159794
1773230422710106000,6.328106201171875,0.02687807008624077,-0.02687807008624077,-0.03481931984424591
1773230422726128400,6.34412841796875,0.016493361443281174,-0.0659734457731247,-0.09346238523721695
1773230422742118700,6.36011865234375,0.027488935738801956,-0.024434609338641167,-0.04764748737215996
1773230422758108200,6.376108154296875,0.02015855349600315,0.015271631069481373,0.05925392732024193
1773230422774131200,6.392131103515625,-0.0012217304902151227,-0.0006108652451075613,0.07391469180583954
1773230422790122800,6.408122802734375,-0.02076941914856434,0.001832595793530345,0.018936822190880775
1773230422806112000,6.424112060546875,-0.021991148591041565,0.01710422709584236,0.015271631069481373
1773230422822104800,6.440104736328125,-0.01771509274840355,0.010995574295520782,0.027488935738801956
1773230422838127400,6.45612744140625,-0.007941247895359993,-0.013439035043120384,-0.010995574295520782
1773230422854116000,6.4721162109375,0.021991148591041565,-0.039706241339445114,-0.04764748737215996
1773230422870109200,6.488109130859375,0.024434609338641167,-0.03176499158143997,-0.0354301854968071
1773230422886129400,6.50412939453125,0.009162978269159794,0.006108652334660292,-0.00366519158706069
1773230422902121200,6.520121337890625,0.01466076634824276,0.029932396486401558,0.02076941914856434
1773230422918111200,6.536111328125,0.009773843921720982,0.021991148591041565,0.03481931984424591
1773230422934105000,6.55210498046875,-0.007941247895359993,0.015271631069481373,0.03848451003432274
1773230422950127900,6.5681279296875,-0.015882495790719986,0.025656340643763542,0.02687807008624077
1773230422966119000,6.584118896484375,-0.001832595793530345,0.022602014243602753,0.021380282938480377
1773230422982107000,6.60010693359375,-0.01038470957428217,0.00427605677396059,0.01710422709584236
1773230422998128600,6.616128662109375,-0.012828170321881771,0.004886921960860491,-0.00733038317412138
1773230423014120200,6.6321201171875,0.02015855349600315,-0.003054326167330146,-0.029932396486401558
1773230423030113300,6.64811328125,0.036041051149368286,-0.027488935738801956,-0.04703662544488907
1773230423046104000,6.66410400390625,0.031154127791523933,-0.036041051149368286,-0.031154127791523933
1773230423062125000,6.680125,0.021380282938480377,0.015271631069481373,0.003054326167330146
1773230423078115600,6.696115478515625,0.01038470957428217,0.04703662544488907,0.01710422709584236
1773230423094106400,6.7121064453125,-0.0012217304902151227,0.039706241339445114,0.018325956538319588
1773230423110128600,6.728128662109375,-0.006108652334660292,0.02015855349600315,-0.0024434609804302454
1773230423126120400,6.744120361328125,0.003054326167330146,0.025045474991202354,-0.05375614017248154
1773230423142111700,6.76011181640625,0.028099801391363144,0.05253441259264946,-0.06414084881544113
1773230423158103300,6.776103271484375,0.027488935738801956,0.05803219974040985,-0.012828170321881771
1773230423174125300,6.792125244140625,0.014049900695681572,0.08918632566928864,0.015271631069481373
1773230423190114600,6.808114501953125,0.030543262138962746,0.08185594528913498,0.04337143152952194
1773230423206106600,6.824106689453125,0.031154127791523933,0.025656340643763542,0.0403171069920063
1773230423222127000,6.840127197265625,0.010995574295520782,-0.03726277872920036,0.016493361443281174
1773230423238119700,6.85611962890625,-0.010995574295520782,0.02687807008624077,-0.014049900695681572
1773230423254111000,6.872111083984375,-0.007941247895359993,0.08307767659425735,-0.004886921960860491
1773230423270103000,6.88810302734375,0.018936822190880775,0.0012217304902151227,-0.02321287989616394
1773230423286123800,6.904123779296875,0.030543262138962746,-0.07024950534105301,-0.048258353024721146
1773230423302115000,6.920114990234375,0.018936822190880775,-0.036651913076639175,-0.02626720629632473
1773230423318106600,6.936106689453125,0.007941247895359993,0.025656340643763542,0.02382374368607998
1773230423334127600,6.952127685546875,0.015882495790719986,0.04642575979232788,0.10445795953273773
1773230423350119700,6.96811962890625,0.018936822190880775,0.02687807008624077,0.14416420459747314
1773230423366109200,6.984109130859375,-0.019547687843441963,0.009773843921720982,0.09346238523721695
1773230423382100700,7.000100830078125,0.0012217304902151227,0.02015855349600315,0.0024434609804302454
1773230423398122800,7.016122802734375,0.051312681287527084,0.0555887371301651,-0.012828170321881771
1773230423414112300,7.0321123046875,0.06169738993048668,-0.02382374368607998,-0.03726277872920036
1773230423430106000,7.048106201171875,0.015271631069481373,-0.033597588539123535,-0.10445795953273773
1773230423446128600,7.064128662109375,0.027488935738801956,0.0024434609804302454,-0.0806342139840126
1773230423462118000,7.080117919921875,0.042760565876960754,-0.02076941914856434,0.018936822190880775
1773230423478109000,7.09610888671875,0.02076941914856434,-0.036651913076639175,0.06536258012056351
1773230423494101800,7.112101806640625,-0.006719517521560192,0.028099801391363144,0.0354301854968071
1773230423510123300,7.128123291015625,0.006719517521560192,0.04214970022439957,0.02626720629632473
1773230423526114600,7.144114501953125,0.005497787147760391,-0.004886921960860491,-0.003054326167330146
1773230423542105000,7.16010498046875,-0.01466076634824276,-0.04337143152952194,-0.051312681287527084
1773230423558126300,7.176126220703125,0.015271631069481373,-0.045204028487205505,-0.08979719132184982
1773230423574118000,7.192117919921875,0.03848451003432274,-0.05192354694008827,-0.05925392732024193
1773230423590110000,7.20810986328125,0.033597588539123535,-0.06169738993048668,-0.006719517521560192
1773230423606131500,7.22413134765625,0.030543262138962746,-0.03481931984424591,0.029932396486401558
1773230423622121200,7.240121337890625,0.018936822190880775,-0.021991148591041565,0.0555887371301651
1773230423638114800,7.25611474609375,-0.02382374368607998,0.006719517521560192,0.06658431142568588
1773230423654103000,7.27210302734375,-0.039095375686883926,0.03420845419168472,0.05864306539297104
1773230423670127600,7.288127685546875,-0.00855211354792118,0.04337143152952194,0.04886921867728233
1773230423686116400,7.304116455078125,0.02321287989616394,-0.02076941914856434,0.024434609338641167
1773230423702108700,7.320108642578125,0.006719517521560192,-0.04886921867728233,-0.022602014243602753
1773230423718128600,7.336128662109375,0.004886921960860491,-0.01160643994808197,-0.04398229718208313
1773230423734120400,7.352120361328125,0.00733038317412138,0.02321287989616394,-0.01038470957428217
1773230423750113500,7.368113525390625,-0.0012217304902151227,0.018936822190880775,0.042760565876960754
1773230423766102300,7.384102294921875,-0.014049900695681572,0.02626720629632473,0.04459316283464432
1773230423782124000,7.4001240234375,0.00427605677396059,0.025045474991202354,0.0012217304902151227
1773230423798116600,7.41611669921875,0.00733038317412138,0.013439035043120384,-0.04214970022439957
1773230423814107000,7.43210693359375,0.012828170321881771,0.04764748737215996,-0.030543262138962746
1773230423830130400,7.44813037109375,0.024434609338641167,0.07757988572120667,0.016493361443281174
1773230423846119700,7.46411962890625,0.031154127791523933,0.03176499158143997,0.028099801391363144
1773230423862111700,7.48011181640625,0.00427605677396059,-0.012217304669320583,0
1773230423878102000,7.49610205078125,0.001832595793530345,0.0024434609804302454,-0.007941247895359993
1773230423894123300,7.512123291015625,-0.005497787147760391,0.03848451003432274,0.010995574295520782
1773230423910116000,7.5281162109375,0.001832595793530345,0.03726277872920036,0.03420845419168472
1773230423926106600,7.544106689453125,0.01771509274840355,0.02687807008624077,0.02932153269648552
1773230423942128600,7.560128662109375,0.025656340643763542,-0.01771509274840355,-0.001832595793530345
1773230423958117600,7.57611767578125,0.0006108652451075613,0.00366519158706069,-0.039095375686883926
1773230423974111700,7.59211181640625,0.004886921960860491,0.02871066704392433,-0.003054326167330146
1773230423990102000,7.60810205078125,0.028099801391363144,0.021380282938480377,0.04581489413976669
1773230424006124000,7.6241240234375,-0.0012217304902151227,-0.012828170321881771,0.028099801391363144
1773230424022114600,7.640114501953125,-0.015271631069481373,0.01160643994808197,-0.00427605677396059
1773230424038104800,7.656104736328125,0.005497787147760391,0.060475658625364304,0.015271631069481373
1773230424054127900,7.6721279296875,0.006108652334660292,0.02076941914856434,0.006108652334660292
1773230424070119200,7.688119140625,0.019547687843441963,-0.024434609338641167,-0.054367005825042725
1773230424086108700,7.704108642578125,0.029932396486401558,-0.007941247895359993,-0.06352998316287994
1773230424102101800,7.720101806640625,0.021380282938480377,-0.006108652334660292,-0.018936822190880775
1773230424118122000,7.7361220703125,0.028099801391363144,-0.01466076634824276,0.022602014243602753
1773230424134112800,7.75211279296875,0.014049900695681572,-0.010995574295520782,0.018325956538319588
1773230424150105000,7.76810498046875,0,-0.03176499158143997,-0.010995574295520782
1773230424166127000,7.784127197265625,0.02076941914856434,-0.02321287989616394,-0.022602014243602753
1773230424182118000,7.800117919921875,0.03176499158143997,-0.0006108652451075613,-0.00855211354792118
1773230424198109400,7.816109375,0.00855211354792118,-0.022602014243602753,-0.025045474991202354
1773230424214099200,7.83209912109375,0.018325956538319588,-0.04459316283464432,-0.03237585723400116
1773230424230122800,7.848122802734375,0.02932153269648552,-0.04703662544488907,0.007941247895359993
1773230424246114300,7.8641142578125,0.018325956538319588,-0.06841690838336945,0.060475658625364304
1773230424262104800,7.880104736328125,-0.010995574295520782,-0.08796459436416626,0.06719517707824707
1773230424278125300,7.896125244140625,-0.03481931984424591,-0.05864306539297104,0.0806342139840126
1773230424294119000,7.912118896484375,-0.015882495790719986,-0.02015855349600315,0.1062905490398407
1773230424310110000,7.92810986328125,0.009773843921720982,-0.001832595793530345,0.0861319974064827
1773230424326100000,7.944099853515625,0.027488935738801956,0.012217304669320583,-0.0024434609804302454
1773230424342123300,7.960123291015625,0.021380282938480377,-0.036651913076639175,-0.08552113175392151
1773230424358111500,7.976111572265625,0.015882495790719986,-0.04214970022439957,-0.05803219974040985
1773230424374102300,7.992102294921875,0.01160643994808197,0.028099801391363144,0.04948008432984352
1773230424390123800,8.008123779296875,0,0.07208210229873657,0.09162978827953339
1773230424406115800,8.02411572265625,-0.009162978269159794,0.05497787147760391,0.02321287989616394
1773230424422108200,8.040108154296876,0.014049900695681572,0.029932396486401558,-0.04948008432984352
1773230424438099200,8.05609912109375,0.02687807008624077,0.02076941914856434,-0.06230825558304787
1773230424454121000,8.072120849609375,0.014049900695681572,0.0354301854968071,-0.021991148591041565
1773230424470114000,8.088114013671875,0.01466076634824276,0.03237585723400116,0.030543262138962746
1773230424486102000,8.10410205078125,0.019547687843441963,-0.004886921960860491,0.06169738993048668
1773230424502126600,8.120126708984374,0.006719517521560192,-0.04092797264456749,0.056810468435287476
1773230424518116600,8.13611669921875,-0.018936822190880775,0.005497787147760391,0.0403171069920063
1773230424534107400,8.152107421875,-0.019547687843441963,0.0507018156349659,0.02076941914856434
1773230424550129200,8.168129150390625,0.029932396486401558,0.006108652334660292,-0.013439035043120384
1773230424566120400,8.184120361328125,0.06230825558304787,-0.05619960278272629,-0.06352998316287994
1773230424582111500,8.200111572265625,0.0354301854968071,-0.015271631069481373,-0.10323622822761536
1773230424598103300,8.216103271484375,0.018325956538319588,0.03726277872920036,-0.05925392732024193
1773230424614122800,8.232122802734375,0.06169738993048668,-0.007941247895359993,0.025045474991202354
1773230424630116400,8.248116455078126,0.025656340643763542,-0.03420845419168472,0.05375614017248154
1773230424646108400,8.2641083984375,-0.029932396486401558,0.04459316283464432,0.056810468435287476
1773230424662097200,8.28009716796875,-0.009773843921720982,0.10812314599752426,0.06169738993048668
1773230424678120400,8.296120361328125,0.012828170321881771,0.0403171069920063,0.04703662544488907
1773230424694111500,8.312111572265625,-0.01710422709584236,-0.03237585723400116,-0.014049900695681572
1773230424710102000,8.32810205078125,-0.004886921960860491,-0.00855211354792118,-0.05497787147760391
1773230424726124800,8.344124755859376,0.021380282938480377,0.01771509274840355,-0.024434609338641167
1773230424742114000,8.360114013671875,0.021380282938480377,-0.028099801391363144,0.019547687843441963
1773230424758106000,8.376106201171876,0.01160643994808197,-0.039095375686883926,0.015882495790719986
1773230424774125800,8.392125732421874,0.02687807008624077,-0.018325956538319588,0.016493361443281174
1773230424790120200,8.4081201171875,0.04764748737215996,-0.00733038317412138,0.05192354694008827
1773230424806108700,8.424108642578124,0.02932153269648552,0.016493361443281174,0.056810468435287476
1773230424822100000,8.440099853515624,0,0.027488935738801956,0.009773843921720982
1773230424838122800,8.456122802734376,0,-0.003054326167330146,-0.05497787147760391
1773230424854113300,8.47211328125,0.03481931984424591,-0.07941248267889023,-0.07024950534105301
1773230424870106600,8.488106689453126,0.03298672288656235,-0.09468411654233932,-0.060475658625364304
1773230424886127400,8.50412744140625,0.00733038317412138,-0.02076941914856434,-0.04214970022439957
1773230424902116900,8.520116943359374,-0.0012217304902151227,0.04581489413976669,-0.004886921960860491
1773230424918109200,8.536109130859375,-0.0006108652451075613,0.024434609338641167,0.05314527451992035
1773230424934099000,8.552098876953124,-0.019547687843441963,0.0012217304902151227,0.05925392732024193
1773230424950122000,8.5681220703125,-0.01160643994808197,0,0.012828170321881771
1773230424966112500,8.584112548828125,0.02382374368607998,0.007941247895359993,-0.025045474991202354
1773230424982103600,8.600103515625,0.042760565876960754,0.012828170321881771,-0.02687807008624077
1773230424998124800,8.616124755859374,0.02871066704392433,0.0354301854968071,-0.018325956538319588
1773230425014115600,8.632115478515624,0.02076941914856434,0.029932396486401558,-0.02321287989616394
1773230425030109200,8.648109130859375,0.001832595793530345,-0.0006108652451075613,-0.039095375686883926
1773230425046100200,8.664100341796875,0.02687807008624077,-0.02321287989616394,-0.03176499158143997
1773230425062122800,8.680122802734376,0.04153883829712868,0.013439035043120384,-0.00427605677396059
1773230425078112300,8.6961123046875,0.02382374368607998,0.04948008432984352,-0.009162978269159794
1773230425094103800,8.712103759765625,0.001832595793530345,0.06963863968849182,-0.025656340643763542
1773230425110126600,8.728126708984375,0.02871066704392433,0.0403171069920063,-0.030543262138962746
1773230425126118700,8.74411865234375,0.039706241339445114,-0.036041051149368286,-0.022602014243602753
1773230425142107400,8.760107421875,0.01038470957428217,-0.02015855349600315,0.012828170321881771
1773230425158098200,8.77609814453125,-0.02076941914856434,0.056810468435287476,0.0659734457731247
1773230425174119200,8.792119140625,-0.012217304669320583,0.06108652427792549,0.042760565876960754
1773230425190112300,8.8081123046875,0.012217304669320583,0.003054326167330146,-0.015271631069481373
1773230425206103600,8.824103515625,0.031154127791523933,-0.033597588539123535,-0.06230825558304787
1773230425222124800,8.840124755859375,0.036651913076639175,-0.02015855349600315,-0.07635815441608429
1773230425238115000,8.856114990234374,0.042760565876960754,0.005497787147760391,-0.021380282938480377
1773230425254107600,8.872107666015625,0.05619960278272629,0.001832595793530345,0.030543262138962746
1773230425270100200,8.888100341796875,0.015271631069481373,-0.0006108652451075613,0.025656340643763542
1773230425286120400,8.904120361328125,-0.012828170321881771,0.022602014243602753,0.016493361443281174
1773230425302112800,8.92011279296875,0.022602014243602753,0.07330382615327835,0.030543262138962746
1773230425318102800,8.936102783203125,0.0507018156349659,0.004886921960860491,0.019547687843441963
1773230425334123500,8.95212353515625,0.04092797264456749,-0.048258353024721146,-0.06230825558304787
1773230425350115800,8.96811572265625,0.02321287989616394,0.00427605677396059,-0.06963863968849182
1773230425366106400,8.9841064453125,0.027488935738801956,0.02871066704392433,0.024434609338641167
1773230425382098700,9.0000986328125,0.03176499158143997,0.0012217304902151227,0.07635815441608429
1773230425398118100,9.0161181640625,0.005497787147760391,-0.018325956538319588,0.025045474991202354
1773230425414110700,9.03211083984375,0.01038470957428217,-0.029932396486401558,-0.04153883829712868
1773230425430101800,9.048101806640625,0.03298672288656235,-0.009773843921720982,-0.060475658625364304
1773230425446124800,9.064124755859375,0.036041051149368286,-0.01466076634824276,-0.048258353024721146
1773230425462114300,9.0801142578125,0.04703662544488907,-0.045204028487205505,-0.018325956538319588
1773230425478105000,9.09610498046875,0.036041051149368286,-0.024434609338641167,0.0354301854968071
1773230425494097400,9.112097412109375,0.005497787147760391,-0.01466076634824276,0.05864306539297104
1773230425510120400,9.128120361328126,0.0012217304902151227,0.0012217304902151227,0.036041051149368286
1773230425526110200,9.144110107421875,-0.004886921960860491,0.03237585723400116,0.029932396486401558
1773230425542101500,9.1601015625,0.006108652334660292,0.04642575979232788,0.03481931984424591
1773230425558121700,9.176121826171874,0.03237585723400116,0.04886921867728233,0.018325956538319588
1773230425574113000,9.192113037109374,0.04581489413976669,0.015882495790719986,-0.025045474991202354
1773230425590105900,9.20810595703125,0.042760565876960754,-0.00427605677396059,-0.04764748737215996
1773230425606126800,9.224126953125,0.02932153269648552,0.02626720629632473,-0.028099801391363144
1773230425622117600,9.24011767578125,0.01466076634824276,0.056810468435287476,0.02321287989616394
1773230425638110700,9.25611083984375,0.00427605677396059,0.07513642311096191,0.0354301854968071
1773230425654099000,9.272098876953125,0.006719517521560192,0.08368854224681854,0.015882495790719986
1773230425670123500,9.28812353515625,0.00855211354792118,0.08857546001672745,-0.00427605677396059
1773230425686114000,9.304114013671875,0.01771509274840355,0.06658431142568588,-0.03237585723400116
1773230425702104800,9.320104736328124,0.018325956538319588,0.022602014243602753,-0.05497787147760391
1773230425718126800,9.336126953125,0.02626720629632473,0.01038470957428217,-0.03481931984424591
1773230425734116400,9.352116455078125,0.029932396486401558,0.013439035043120384,0.013439035043120384
1773230425750108700,9.368108642578125,0.036041051149368286,-0.01710422709584236,0.022602014243602753
1773230425766098400,9.384098388671875,0.048258353024721146,-0.06108652427792549,-0.04337143152952194
1773230425782121500,9.40012158203125,0.05192354694008827,-0.10934487730264664,-0.09407325088977814
1773230425798112800,9.41611279296875,0.07757988572120667,-0.12400564551353455,-0.1062905490398407
1773230425814102800,9.432102783203124,0.07757988572120667,-0.0861319974064827,-0.09285151958465576
1773230425830094300,9.44809423828125,0.07147123664617538,-0.05314527451992035,-0.05619960278272629
1773230425846116900,9.464116943359375,0.07147123664617538,-0.014049900695681572,0.012828170321881771
1773230425862107600,9.480107666015625,0.07941248267889023,-0.0024434609804302454,0.0403171069920063
1773230425878100000,9.496099853515625,0.03726277872920036,-0.04642575979232788,0.00733038317412138
1773230425894119400,9.512119384765626,0.04886921867728233,-0.045204028487205505,0.01710422709584236
1773230425918106600,9.536106689453124,0.05192354694008827,-0.01710422709584236,0.07208210229873657
1773230425934099200,9.55209912109375,0.00366519158706069,0.019547687843441963,0.021380282938480377
1773230425950119200,9.568119140625,0.025045474991202354,0.06230825558304787,-0.012828170321881771
1773230425966111500,9.584111572265625,0.03237585723400116,0.02932153269648552,0.006108652334660292
1773230425982102000,9.60010205078125,0.001832595793530345,0.012828170321881771,-0.01038470957428217
1773230425998123800,9.616123779296874,0.027488935738801956,0.04398229718208313,-0.01160643994808197
1773230426014116000,9.6321162109375,0.054367005825042725,-0.00733038317412138,0.021380282938480377
1773230426030106600,9.648106689453124,0.02687807008624077,-0.03176499158143997,0.02015855349600315
1773230426046097000,9.664096923828126,0.015882495790719986,-0.01160643994808197,0.016493361443281174
1773230426062120200,9.6801201171875,0.014049900695681572,0.015271631069481373,0.039706241339445114
1773230426078109200,9.696109130859375,0.015882495790719986,0.06475171446800232,0.07147123664617538
1773230426094102300,9.712102294921875,0.019547687843441963,0.08735372871160507,0.06780604273080826
1773230426110125000,9.728125,0.0757472887635231,0.02015855349600315,0.03848451003432274
1773230426126114000,9.744114013671876,0.06291911751031876,0.027488935738801956,0.021380282938480377
1773230426142107000,9.76010693359375,0.03787364438176155,0.06108652427792549,0.0555887371301651
1773230426158098200,9.77609814453125,0.001832595793530345,0.11728613078594208,0.09957103431224823
1773230426174118700,9.79211865234375,-0.015882495790719986,0.14477506279945374,0.12889257073402405
1773230426190109000,9.80810888671875,-0.01710422709584236,0.1160643994808197,0.10567969083786011
1773230426206102300,9.824102294921875,-0.009162978269159794,0.07513642311096191,0.06475171446800232
1773230426222121500,9.84012158203125,-0.031154127791523933,0.08491026610136032,0.04703662544488907
1773230426238112800,9.85611279296875,-0.05925392732024193,0.15882496535778046,0.0659734457731247
1773230426254105300,9.872105224609374,-0.010995574295520782,0.2828305959701538,0.12767083942890167
1773230426270097200,9.88809716796875,0.00733038317412138,0.23335053026676178,0.19486601650714874
1773230426286118000,9.904117919921875,0.003054326167330146,0.0708603709936142,0.19058994948863983
1773230426302108400,9.9201083984375,0.018936822190880775,0.005497787147760391,0.08307767659425735
1773230426318101800,9.936101806640625,0.06108652427792549,-0.021991148591041565,-0.05192354694008827
1773230426334122000,9.9521220703125,0.07880161702632904,-0.0861319974064827,-0.1466076523065567
1773230426350113800,9.96811376953125,0.07513642311096191,-0.1508837193250656,-0.19608774781227112
1773230426366105900,9.98410595703125,0.06291911751031876,-0.06536258012056351,-0.21930062770843506
1773230426382096100,10.00009619140625,0.09407325088977814,-0.012217304669320583,-0.13255776464939117
1773230426398118000,10.016117919921875,0.08246681094169617,-0.022602014243602753,-0.02321287989616394
1773230426414108000,10.03210791015625,0.006719517521560192,-0.0012217304902151227,0.013439035043120384
1773230426430101200,10.048101318359375,-0.00366519158706069,0.05619960278272629,0.04642575979232788
1773230426446122800,10.064122802734374,0.02382374368607998,0.04703662544488907,0.07696902006864548
1773230426462113300,10.08011328125,-0.003054326167330146,-0.029932396486401558,0.06536258012056351
1773230426478104800,10.096104736328124,-0.006719517521560192,-0.03298672288656235,0.0012217304902151227
1773230426494096000,10.112095947265624,0.03237585723400116,-0.012828170321881771,-0.03176499158143997
1773230426510119000,10.128118896484375,0.08307767659425735,-0.06108652427792549,-0.04703662544488907
1773230426526108700,10.144108642578125,0.09712757170200348,-0.0910189226269722,-0.0708603709936142
1773230426542098200,10.16009814453125,0.09468411654233932,-0.07635815441608429,-0.07819075137376785
1773230426558121200,10.176121337890624,0.07941248267889023,-0.03726277872920036,-0.0708603709936142
1773230426574111700,10.19211181640625,0.08368854224681854,-0.048258353024721146,-0.0507018156349659
1773230426590104300,10.208104248046874,0.05925392732024193,-0.07941248267889023,-0.0354301854968071
1773230426606124300,10.224124267578125,0.02382374368607998,-0.04398229718208313,-0.003054326167330146
1773230426622115000,10.240114990234375,0.01771509274840355,0.04398229718208313,0.06291911751031876
1773230426638106600,10.256106689453125,0.02015855349600315,0.07147123664617538,0.07452555745840073
1773230426654100000,10.272099853515625,0.016493361443281174,-0.013439035043120384,-0.012217304669320583
1773230426670121200,10.288121337890624,0.021380282938480377,-0.031154127791523933,-0.08979719132184982
1773230426686113300,10.30411328125,0.025656340643763542,0.00855211354792118,-0.02687807008624077
1773230426702102000,10.32010205078125,0.015882495790719986,0.056810468435287476,0.06414084881544113
1773230426718125000,10.336125,0.018325956538319588,0.04886921867728233,0.10018189996480942
1773230426734114800,10.35211474609375,0.00855211354792118,0.036041051149368286,0.07024950534105301
1773230426750108200,10.368108154296875,0.0024434609804302454,0.028099801391363144,0.04092797264456749
1773230426766098200,10.38409814453125,0.02626720629632473,0.03176499158143997,0.02871066704392433
1773230426782119700,10.40011962890625,0.04642575979232788,0.03420845419168472,0.015271631069481373
1773230426798111000,10.416111083984376,0.05864306539297104,0.003054326167330146,-0.018936822190880775
1773230426814101800,10.432101806640626,0.04703662544488907,0.01710422709584236,-0.05192354694008827
1773230426830124500,10.44812451171875,0.05864306539297104,0.036041051149368286,-0.06291911751031876
1773230426846115800,10.46411572265625,0.051312681287527084,0.04092797264456749,-0.051312681287527084
1773230426862106000,10.480106201171875,0.06475171446800232,0.039706241339445114,-0.0012217304902151227
1773230426878096000,10.496095947265625,0.042760565876960754,0.06352998316287994,0.04459316283464432
1773230426894117600,10.51211767578125,0.007941247895359993,0.06230825558304787,0.04764748737215996
1773230426910110500,10.5281103515625,0.0012217304902151227,0.07024950534105301,0.048258353024721146
1773230426926102500,10.5441025390625,0.014049900695681572,0.021991148591041565,0.03481931984424591
1773230426942123000,10.560123046875,0.007941247895359993,-0.04398229718208313,-0.01710422709584236
1773230426958114300,10.5761142578125,0.01466076634824276,-0.05925392732024193,-0.05192354694008827
1773230426974104300,10.592104248046875,0.04337143152952194,-0.05864306539297104,-0.024434609338641167
1773230426990097200,10.60809716796875,0.036041051149368286,-0.07513642311096191,0.007941247895359993
1773230427006118700,10.62411865234375,-0.013439035043120384,-0.07147123664617538,-0.015882495790719986
1773230427022109700,10.640109619140626,-0.00427605677396059,-0.027488935738801956,-0.04642575979232788
1773230427038100500,10.6561005859375,0.06108652427792549,-0.024434609338641167,-0.039095375686883926
1773230427054123000,10.672123046875,0.06841690838336945,-0.04092797264456749,-0.036041051149368286
1773230427070115600,10.688115478515625,0.0555887371301651,-0.02871066704392433,-0.06475171446800232
1773230427086103800,10.704103759765625,0.04703662544488907,0.0024434609804302454,-0.07941248267889023
1773230427102096400,10.720096435546875,0.036651913076639175,0.004886921960860491,-0.02321287989616394
1773230427118118700,10.73611865234375,-0.009773843921720982,0.0012217304902151227,0.04886921867728233
1773230427134107100,10.752107177734375,-0.021991148591041565,0.0403171069920063,0.06902777403593063
1773230427150101500,10.7681015625,-0.01771509274840355,0.048258353024721146,0.05253441259264946
1773230427166122200,10.784122314453125,0.0012217304902151227,0.006719517521560192,0.01038470957428217
1773230427182113500,10.800113525390625,-0.01038470957428217,-0.013439035043120384,-0.02382374368607998
1773230427198104000,10.81610400390625,-0.025656340643763542,0.02076941914856434,-0.009162978269159794
1773230427214097000,10.832096923828125,-0.03787364438176155,0.07024950534105301,0.05375614017248154
1773230427230116900,10.848116943359376,-0.007941247895359993,0.04214970022439957,0.09224065393209457
1773230427246108200,10.864108154296876,-0.013439035043120384,-0.015882495790719986,0.0354301854968071
1773230427262098400,10.880098388671875,-0.010995574295520782,0.003054326167330146,-0.045204028487205505
1773230427278121000,10.896120849609375,0.033597588539123535,0.0659734457731247,-0.018936822190880775
1773230427294113500,10.912113525390625,0.0403171069920063,0.04153883829712868,0.01038470957428217
1773230427310104000,10.92810400390625,-0.0006108652451075613,0.02871066704392433,-0.019547687843441963
1773230427326124300,10.944124267578125,0.00427605677396059,0.06780604273080826,-0.015271631069481373
1773230427342116000,10.9601162109375,0.024434609338641167,0.03787364438176155,0.036041051149368286
1773230427358107100,10.976107177734375,0.039095375686883926,-0.013439035043120384,0.03237585723400116
1773230427374098000,10.992097900390625,0.03481931984424591,0.019547687843441963,-0.0012217304902151227
1773230427390122200,11.008122314453125,0.04764748737215996,0.025656340643763542,-0.022602014243602753
1773230427406113300,11.02411328125,0.024434609338641167,0.016493361443281174,-0.02076941914856434
1773230427422102800,11.040102783203125,0.007941247895359993,-0.039706241339445114,-0.013439035043120384
1773230427438094600,11.056094482421875,-0.00427605677396059,-0.07269296050071716,-0.007941247895359993
1773230427454114800,11.07211474609375,-0.016493361443281174,-0.05864306539297104,0.01038470957428217
1773230427470105600,11.088105712890625,-0.007941247895359993,-0.018936822190880775,0.039095375686883926
1773230427485990000,11.103989990234375,0.001832595793530345,-0.02871066704392433,0.03237585723400116
1773230427502131200,11.120131103515625,0.010995574295520782,-0.05742133408784866,-0.029932396486401558
1773230427518122800,11.136122802734375,0.0006108652451075613,-0.0555887371301651,-0.06414084881544113
1773230427534113800,11.15211376953125,0,-0.018936822190880775,-0.0403171069920063
1773230427550107000,11.16810693359375,-0.01466076634824276,0.018936822190880775,0.016493361443281174
1773230427566126800,11.184126953125,-0.005497787147760391,0.00427605677396059,0.045204028487205505
1773230427582119000,11.200118896484375,0.001832595793530345,0.001832595793530345,0.02321287989616394
1773230427598108700,11.216108642578124,0.006719517521560192,0.015882495790719986,0.00733038317412138
1773230427614130700,11.232130615234375,-0.022602014243602753,0.05253441259264946,0.0024434609804302454
1773230427630122000,11.2481220703125,-0.036651913076639175,0.07147123664617538,-0.00427605677396059
1773230427646113500,11.264113525390625,-0.04642575979232788,0.0659734457731247,-0.009162978269159794
1773230427662133200,11.28013330078125,-0.03481931984424591,0.036041051149368286,0.00366519158706069
1773230427678125000,11.296125,-0.03237585723400116,0.045204028487205505,0.028099801391363144
1773230427694118000,11.312117919921874,-0.018325956538319588,0.06719517707824707,0.06536258012056351
1773230427710110000,11.32810986328125,-0.031154127791523933,0.10323622822761536,0.07391469180583954
1773230427726130000,11.3441298828125,-0.0354301854968071,0.06658431142568588,0.06841690838336945
1773230427742121200,11.360121337890625,-0.04337143152952194,0.033597588539123535,0.03848451003432274
1773230427758112800,11.37611279296875,-0.01160643994808197,0.013439035043120384,0.004886921960860491
1773230427774133200,11.39213330078125,0.02382374368607998,0.003054326167330146,-0.014049900695681572
1773230427790126800,11.408126953125,0.03298672288656235,-0.04153883829712868,-0.05742133408784866
1773230427806115800,11.42411572265625,0.00366519158706069,-0.02382374368607998,-0.09773843735456467
1773230427822109200,11.440109130859375,0.01710422709584236,0.03848451003432274,-0.04764748737215996
1773230427838128600,11.456128662109375,0.022602014243602753,0.022602014243602753,0.04337143152952194
1773230427854121500,11.47212158203125,-0.015882495790719986,-0.01038470957428217,0.06352998316287994
1773230427870112500,11.488112548828125,-0.018325956538319588,0.021380282938480377,0.04153883829712868
1773230427886134500,11.504134521484374,0.004886921960860491,0.03420845419168472,0.028099801391363144
1773230427902123800,11.520123779296876,-0.014049900695681572,-0.006108652334660292,-0.025656340643763542
1773230427918116400,11.536116455078124,-0.009162978269159794,-0.019547687843441963,-0.07024950534105301
1773230427934106000,11.552106201171876,0.009773843921720982,0.02382374368607998,-0.05314527451992035
1773230427950130700,11.568130615234375,0.006108652334660292,-0.006108652334660292,0.003054326167330146
1773230427966121500,11.58412158203125,-0.0006108652451075613,-0.039706241339445114,0.003054326167330146
1773230427982110700,11.60011083984375,-0.028099801391363144,-0.033597588539123535,-0.036041051149368286
1773230427998131200,11.616131103515626,-0.021380282938480377,0.0024434609804302454,-0.016493361443281174
1773230428014123800,11.632123779296874,-0.00855211354792118,0.009773843921720982,0.036041051149368286
1773230428030117000,11.6481171875,-0.009773843921720982,-0.02076941914856434,0.004886921960860491
1773230428046106000,11.664106201171874,-0.018325956538319588,-0.013439035043120384,-0.03848451003432274
1773230428062127900,11.6801279296875,-0.0012217304902151227,-0.009773843921720982,-0.021991148591041565
1773230428078118400,11.696118408203125,-0.009162978269159794,-0.021380282938480377,-0.009162978269159794
1773230428094109400,11.712109375,-0.0024434609804302454,-0.014049900695681572,0.007941247895359993
1773230428110132700,11.7281328125,-0.0012217304902151227,0.018936822190880775,0.03176499158143997
1773230428126124000,11.7441240234375,0.009162978269159794,-0.001832595793530345,-0.0024434609804302454
1773230428142114300,11.7601142578125,0.024434609338641167,-0.01160643994808197,-0.05009094998240471
1773230428158105900,11.77610595703125,0.03237585723400116,-0.03237585723400116,-0.04092797264456749
1773230428174128400,11.79212841796875,0.01160643994808197,-0.01160643994808197,0.00366519158706069
1773230428198112800,11.81611279296875,-0.06108652427792549,0.08857546001672745,0.07819075137376785
1773230428214105000,11.83210498046875,-0.0507018156349659,0.05925392732024193,0.07208210229873657
1773230428230125800,11.848125732421876,-0.012828170321881771,-0.01466076634824276,0.015271631069481373
1773230428246119400,11.864119384765624,0.021380282938480377,-0.051312681287527084,-0.0403171069920063
1773230428262108700,11.880108642578126,0.00427605677396059,-0.015882495790719986,-0.06963863968849182
1773230428278131200,11.896131103515625,-0.019547687843441963,0.03848451003432274,-0.04703662544488907
1773230428294123800,11.912123779296875,0.001832595793530345,0.033597588539123535,-0.00427605677396059
1773230428310115600,11.928115478515625,0.018936822190880775,-0.048258353024721146,0.0024434609804302454
1773230428326134300,11.94413427734375,-0.0012217304902151227,-0.05009094998240471,-0.024434609338641167
1773230428342126300,11.960126220703126,0.025656340643763542,0.006719517521560192,-0.02626720629632473
1773230428358117000,11.9761171875,0.03176499158143997,0.012828170321881771,-0.039095375686883926
1773230428374109700,11.992109619140624,0.018936822190880775,-0.06902777403593063,-0.0708603709936142
1773230428390132700,12.0081328125,-0.00733038317412138,-0.08185594528913498,-0.08307767659425735
1773230428406120700,12.02412060546875,-0.018325956538319588,-0.009773843921720982,-0.024434609338641167
1773230428422112800,12.04011279296875,-0.001832595793530345,0.025045474991202354,0.04153883829712868
1773230428438133500,12.056133544921876,0.006108652334660292,-0.02687807008624077,0.039095375686883926
1773230428454125300,12.072125244140626,-0.001832595793530345,-0.09040805697441101,-0.027488935738801956
1773230428470118400,12.088118408203124,-0.00366519158706069,-0.05864306539297104,-0.07024950534105301
1773230428486108200,12.104108154296876,0,-0.024434609338641167,-0.0403171069920063
1773230428502129700,12.120129638671875,0.007941247895359993,-0.013439035043120384,0.009162978269159794
1773230428518120400,12.136120361328125,-0.00733038317412138,-0.005497787147760391,0.02687807008624077
1773230428534111500,12.152111572265625,0.0012217304902151227,0.01160643994808197,0.039706241339445114
1773230428550136300,12.16813623046875,-0.015271631069481373,0.007941247895359993,0.00366519158706069
1773230428566126000,12.1841259765625,-0.009773843921720982,0.006719517521560192,-0.04398229718208313
1773230428582117400,12.200117431640624,0.024434609338641167,0.013439035043120384,-0.02321287989616394
1773230428598107100,12.216107177734376,0.03420845419168472,0.024434609338641167,0.02687807008624077
1773230428614129700,12.232129638671875,-0.00855211354792118,0.05497787147760391,0.07208210229873657
1773230428630122200,12.248122314453125,-0.016493361443281174,0.05619960278272629,0.09651670604944229
1773230428646112500,12.264112548828125,-0.04764748737215996,0.02687807008624077,0.09040805697441101
1773230428662132700,12.2801328125,-0.012828170321881771,-0.02626720629632473,0.06780604273080826
1773230428678125300,12.296125244140624,0.019547687843441963,-0.00855211354792118,0.04703662544488907
1773230428694116400,12.312116455078124,0.02687807008624077,0.01160643994808197,0.0006108652451075613
1773230428710108700,12.328108642578124,0.04398229718208313,0.01466076634824276,-0.08307767659425735
1773230428726130200,12.344130126953125,0.04703662544488907,0.02687807008624077,-0.13255776464939117
1773230428742119200,12.360119140625,0.036041051149368286,0.028099801391363144,-0.06963863968849182
1773230428758110200,12.376110107421875,0.036651913076639175,0.039706241339445114,0.05314527451992035
1773230428774134300,12.39213427734375,0.01160643994808197,0.08246681094169617,0.10812314599752426
1773230428790125600,12.40812548828125,0.0024434609804302454,0.04092797264456749,0.07635815441608429
1773230428806114600,12.424114501953126,0,-0.00855211354792118,0.01038470957428217
1773230428822105900,12.44010595703125,-0.03726277872920036,-0.014049900695681572,-0.02382374368607998
1773230428838128600,12.456128662109375,-0.029932396486401558,0.01466076634824276,-0.03176499158143997
1773230428854119400,12.472119384765625,0.009162978269159794,-0.03420845419168472,-0.04581489413976669
1773230428870110000,12.48810986328125,0.03787364438176155,-0.11728613078594208,-0.09040805697441101
1773230428886131700,12.504131591796876,0.045204028487205505,-0.13988813757896423,-0.10262536257505417
1773230428902124000,12.5201240234375,0.027488935738801956,-0.09346238523721695,-0.06475171446800232
1773230428918113300,12.53611328125,0.00366519158706069,-0.0354301854968071,-0.036041051149368286
1773230428934105000,12.55210498046875,0.028099801391363144,-0.031154127791523933,-0.0354301854968071
1773230428950129700,12.568129638671875,0.045204028487205505,-0.06536258012056351,-0.04398229718208313
1773230428966119000,12.584118896484375,0.036651913076639175,-0.06230825558304787,-0.045204028487205505
1773230428982109700,12.600109619140625,0.02871066704392433,-0.004886921960860491,-0.007941247895359993
1773230428998132200,12.61613232421875,0,0.018325956538319588,0.036651913076639175
1773230429014121500,12.63212158203125,-0.030543262138962746,0.03237585723400116,0.06475171446800232
1773230429030114600,12.648114501953126,-0.04398229718208313,0.02382374368607998,0.0861319974064827
1773230429046104000,12.66410400390625,-0.021380282938480377,-0.001832595793530345,0.07635815441608429
1773230429062127400,12.68012744140625,0.00855211354792118,-0.015882495790719986,0.05009094998240471
1773230429078117000,12.6961171875,0.018936822190880775,0.0024434609804302454,0.001832595793530345
1773230429094110500,12.7121103515625,0.02015855349600315,0.04092797264456749,-0.01771509274840355
1773230429110131700,12.728131591796876,0.021991148591041565,0.045204028487205505,-0.02015855349600315
1773230429126121200,12.744121337890626,0.021380282938480377,-0.009162978269159794,-0.012828170321881771
1773230429142112000,12.760112060546875,0.0354301854968071,-0.006108652334660292,0.01771509274840355
1773230429158105000,12.77610498046875,0.024434609338641167,0.030543262138962746,0.03237585723400116
1773230429174125800,12.792125732421875,0.01160643994808197,0.04581489413976669,0.00733038317412138
1773230429190119400,12.808119384765625,0.007941247895359993,0.04153883829712868,-0.01466076634824276
1773230429206110000,12.82410986328125,0.012828170321881771,0.005497787147760391,-0.025045474991202354
1773230429222129400,12.84012939453125,0.007941247895359993,-0.0012217304902151227,-0.0012217304902151227
1773230429238122500,12.85612255859375,0.009773843921720982,0.025656340643763542,0.039706241339445114
1773230429254111700,12.87211181640625,-0.006108652334660292,0.029932396486401558,0.06230825558304787
1773230429270106400,12.8881064453125,-0.013439035043120384,-0.02321287989616394,0.04214970022439957
1773230429286126800,12.904126953125,-0.02932153269648552,-0.019547687843441963,0.010995574295520782
1773230429302115300,12.920115234375,-0.029932396486401558,-0.00855211354792118,0.016493361443281174
1773230429318107400,12.936107421875,-0.018325956538319588,-0.0012217304902151227,-0.00855211354792118
1773230429334130000,12.9521298828125,0.01466076634824276,-0.04703662544488907,-0.06841690838336945
1773230429350121700,12.968121826171876,0.042760565876960754,-0.04398229718208313,-0.1264491081237793
1773230429366111000,12.984111083984375,0.06230825558304787,0.01466076634824276,-0.10262536257505417
1773230429382102300,13.000102294921875,0.07696902006864548,0.036651913076639175,-0.04092797264456749
1773230429398126300,13.016126220703125,0.07024950534105301,-0.00366519158706069,0.05009094998240471
1773230429414115600,13.032115478515625,-0.007941247895359993,-0.0354301854968071,0.10445795953273773
1773230429430108700,13.048108642578125,-0.10751228034496307,0.028099801391363144,0.1215621829032898
1773230429446129700,13.064129638671876,-0.08918632566928864,0.08491026610136032,0.13011430203914642
1773230429462121200,13.080121337890626,-0.009162978269159794,-0.00855211354792118,0.1215621829032898
1773230429478111200,13.096111328125,-0.01160643994808197,-0.08979719132184982,-0.015271631069481373
1773230429494134000,13.112134033203125,0.00733038317412138,-0.039706241339445114,-0.19303341209888458
1773230429510125000,13.128125,0.04886921867728233,0.07147123664617538,-0.2321287989616394
1773230429526114800,13.14411474609375,0.06291911751031876,0.05009094998240471,-0.10995574295520782
1773230429542105600,13.160105712890624,0.07941248267889023,-0.014049900695681572,0.013439035043120384
1773230429558128400,13.17612841796875,0.04886921867728233,0.02871066704392433,0.09407325088977814
1773230429574119200,13.192119140625,0.036041051149368286,0.02076941914856434,0.16554448008537292
1773230429590111000,13.208111083984376,0.00427605677396059,-0.024434609338641167,0.20402899384498596
1773230429606101200,13.224101318359375,-0.0555887371301651,-0.02932153269648552,0.18997909128665924
1773230429622123000,13.240123046875,-0.16004669666290283,-0.03848451003432274,0.11056660860776901
1773230429638114800,13.25611474609375,-0.08796459436416626,0.003054326167330146,-0.036041051149368286
1773230429654106400,13.2721064453125,0.06475171446800232,-0.1160643994808197,-0.1319468915462494
1773230429670128000,13.288128173828126,0.1258382350206375,-0.20097467303276062,-0.19975294172763824
1773230429686119000,13.304118896484376,0.059864792972803116,-0.02687807008624077,-0.1667662113904953
1773230429702112300,13.3201123046875,0.01710422709584236,0.15577064454555511,-0.039706241339445114
1773230429718132200,13.33613232421875,0.0006108652451075613,0.12278391420841217,0.07819075137376785
1773230429734123000,13.352123046875,0.003054326167330146,-0.015882495790719986,0.1362229436635971
1773230429750116000,13.3681162109375,-0.0024434609804302454,-0.05925392732024193,0.13316862285137177
1773230429766104300,13.384104248046874,-0.006108652334660292,-0.031154127791523933,0.06719517707824707
1773230429782127600,13.400127685546876,-0.006108652334660292,0.0012217304902151227,-0.01038470957428217
1773230429798117000,13.4161171875,-0.021991148591041565,0.01710422709584236,-0.04398229718208313
1773230429814109200,13.432109130859375,-0.03481931984424591,-0.014049900695681572,-0.042760565876960754
1773230429830133200,13.44813330078125,0.003054326167330146,-0.05497787147760391,-0.03176499158143997
1773230429846123000,13.464123046875,0.07513642311096191,-0.0757472887635231,-0.031154127791523933
1773230429862113800,13.48011376953125,0.08735372871160507,-0.08674286305904388,-0.02932153269648552
1773230429878104600,13.4961044921875,0.042760565876960754,-0.021991148591041565,-0.013439035043120384
1773230429894125800,13.512125732421875,-0.009773843921720982,0.07269296050071716,0.039706241339445114
1773230429910118400,13.528118408203126,-0.004886921960860491,0.07391469180583954,0.0910189226269722
1773230429926111000,13.544111083984374,-0.01160643994808197,0.04092797264456749,0.11056660860776901
1773230429942131500,13.56013134765625,-0.027488935738801956,0.01038470957428217,0.08491026610136032
1773230429958121000,13.576120849609374,-0.025045474991202354,0.02015855349600315,0.059864792972803116
1773230429974112800,13.59211279296875,-0.019547687843441963,0.03848451003432274,0.015882495790719986
1773230429990105600,13.608105712890625,-0.033597588539123535,0.02321287989616394,-0.042760565876960754
1773230430006127000,13.624127197265626,-0.0006108652451075613,0.01771509274840355,-0.059864792972803116
1773230430022118000,13.640117919921876,0.015271631069481373,-0.01038470957428217,-0.03176499158143997
1773230430038108400,13.6561083984375,0.0024434609804302454,-0.022602014243602753,-0.00366519158706069
1773230430054130700,13.672130615234375,-0.007941247895359993,0.056810468435287476,0.027488935738801956
1773230430070122000,13.6881220703125,0.02626720629632473,0.04459316283464432,0.04886921867728233
1773230430086111000,13.704111083984374,0.02382374368607998,-0.01160643994808197,0.029932396486401558
1773230430102103300,13.720103271484374,-0.021380282938480377,-0.02871066704392433,-0.02382374368607998
1773230430118124500,13.73612451171875,-0.025656340643763542,0.010995574295520782,-0.05314527451992035
1773230430134117400,13.752117431640626,0.03176499158143997,0.03481931984424591,-0.021380282938480377
1773230430150109200,13.768109130859376,0.039706241339445114,-0.048258353024721146,0.025656340643763542
1773230430166129700,13.784129638671875,-0.0006108652451075613,-0.039095375686883926,0.00366519158706069
1773230430182120200,13.8001201171875,-0.0024434609804302454,0.021380282938480377,0.02076941914856434
1773230430198112300,13.8161123046875,-0.006719517521560192,0.030543262138962746,0.051312681287527084
1773230430214102500,13.8321025390625,-0.036041051149368286,-0.016493361443281174,0.04398229718208313
1773230430230126300,13.848126220703126,-0.015271631069481373,-0.06230825558304787,0.00427605677396059
1773230430246116900,13.864116943359376,0.005497787147760391,-0.030543262138962746,-0.004886921960860491
1773230430262107600,13.880107666015626,0.016493361443281174,-0.014049900695681572,0.01038470957428217
1773230430278127600,13.896127685546874,0.004886921960860491,0.00366519158706069,0.0024434609804302454
1773230430294121200,13.912121337890625,-0.021380282938480377,0.04214970022439957,-0.022602014243602753
1773230430310112300,13.9281123046875,-0.010995574295520782,0.00855211354792118,-0.03726277872920036
1773230430326102000,13.94410205078125,0.015882495790719986,-0.013439035043120384,-0.04764748737215996
1773230430342124500,13.96012451171875,0.054367005825042725,-0.00855211354792118,-0.04948008432984352
1773230430358117400,13.976117431640626,0.0403171069920063,0.03787364438176155,-0.03787364438176155
1773230430374106600,13.992106689453125,0.012217304669320583,0.11301007121801376,0.009773843921720982
1773230430390129700,14.008129638671875,-0.013439035043120384,0.0910189226269722,0.07880161702632904
1773230430406121500,14.02412158203125,-0.031154127791523933,0.022602014243602753,0.08185594528913498
1773230430422109000,14.04010888671875,-0.05253441259264946,-0.04398229718208313,0.03726277872920036
1773230430438133000,14.056133056640626,-0.02871066704392433,-0.02015855349600315,-0.01466076634824276
1773230430454124800,14.072124755859376,0.018325956538319588,0.018325956538319588,-0.02626720629632473
1773230430470115800,14.08811572265625,0.04214970022439957,-0.03787364438176155,-0.06230825558304787
1773230430486106600,14.104106689453126,0.025045474991202354,-0.051312681287527084,-0.08674286305904388
1773230430502126600,14.120126708984374,0.02626720629632473,-0.04398229718208313,-0.045204028487205505
1773230430518117400,14.136117431640624,-0.0024434609804302454,-0.02076941914856434,0.01710422709584236
1773230430534110200,14.152110107421874,-0.00855211354792118,0.016493361443281174,0.059864792972803116
1773230430550102800,14.168102783203125,0,0.01710422709584236,0.04214970022439957
1773230430566123000,14.184123046875,0.012217304669320583,-0.004886921960860491,-0.02321287989616394
1773230430582113300,14.20011328125,0.019547687843441963,-0.02871066704392433,-0.07635815441608429
1773230430598103800,14.216103759765625,-0.027488935738801956,0.018936822190880775,-0.03481931984424591
1773230430614125300,14.232125244140626,-0.025656340643763542,0.08246681094169617,0.06963863968849182
1773230430630120000,14.248119873046875,-0.009162978269159794,0.015882495790719986,0.11484266817569733
1773230430646111000,14.264111083984375,-0.018936822190880775,-0.06536258012056351,0.04398229718208313
1773230430662131200,14.280131103515625,-0.0354301854968071,-0.0507018156349659,0.0012217304902151227
1773230430678122500,14.29612255859375,-0.027488935738801956,0.04214970022439957,0.00855211354792118
1773230430694112800,14.31211279296875,-0.01710422709584236,0.04948008432984352,0.01160643994808197
1773230430710105900,14.32810595703125,-0.01710422709584236,-0.024434609338641167,-0.028099801391363144
1773230430726126600,14.344126708984374,0.019547687843441963,-0.042760565876960754,-0.03481931984424591
1773230430742117600,14.36011767578125,0.02321287989616394,-0.019547687843441963,0.012217304669320583
1773230430758110000,14.37610986328125,0.018325956538319588,0.025045474991202354,0.033597588539123535
1773230430774129000,14.39212890625,-0.00366519158706069,0.02015855349600315,-0.012217304669320583
1773230430790124300,14.408124267578126,0.0012217304902151227,0.001832595793530345,-0.07513642311096191
1773230430806111700,14.42411181640625,0.030543262138962746,0.02076941914856434,-0.05742133408784866
1773230430822103300,14.440103271484375,0.024434609338641167,0.0012217304902151227,-0.01466076634824276
1773230430838125600,14.45612548828125,-0.004886921960860491,0.00855211354792118,0.006108652334660292
1773230430854115800,14.47211572265625,-0.001832595793530345,0.07024950534105301,0.0354301854968071
1773230430870107100,14.488107177734374,0.01038470957428217,0.004886921960860491,0.056810468435287476
1773230430886129400,14.50412939453125,-0.027488935738801956,-0.09651670604944229,0.00427605677396059
1773230430902120000,14.520119873046875,-0.056810468435287476,-0.05803219974040985,-0.03848451003432274
1773230430918111500,14.536111572265625,-0.024434609338641167,0.03420845419168472,-0.001832595793530345
1773230430934102300,14.552102294921875,0.04764748737215996,-0.018936822190880775,0.02687807008624077
1773230430950126600,14.568126708984375,0.01466076634824276,-0.10812314599752426,-0.06963863968849182
1773230430966115300,14.584115234375,0.006719517521560192,-0.09162978827953339,-0.10873401165008545
1773230430982106400,14.6001064453125,0.012217304669320583,0.00733038317412138,-0.02871066704392433
1773230430998130000,14.6161298828125,0.003054326167330146,0.021991148591041565,0.07024950534105301
1773230431014121000,14.632120849609375,-0.018325956538319588,0.01710422709584236,0.0910189226269722
1773230431030111700,14.64811181640625,-0.0354301854968071,0.04703662544488907,0.07452555745840073
1773230431046102800,14.664102783203125,-0.028099801391363144,0.010995574295520782,0.04886921867728233
1773230431062124500,14.68012451171875,-0.039706241339445114,-0.0006108652451075613,0.01710422709584236
1773230431078116400,14.696116455078124,-0.02015855349600315,-0.00427605677396059,0.021991148591041565
1773230431094107100,14.712107177734374,-0.05375614017248154,-0.14966198801994324,0.06780604273080826
1773230431110130200,14.728130126953126,-0.054367005825042725,-0.0555887371301651,0.08124507963657379
1773230431126119700,14.74411962890625,0.02015855349600315,0.10812314599752426,0.036041051149368286
1773230431142110500,14.7601103515625,0.054367005825042725,0.03298672288656235,-0.05253441259264946
1773230431158102500,14.7761025390625,0.022602014243602753,-0.05864306539297104,-0.09224065393209457
1773230431174123800,14.792123779296874,0.00427605677396059,0.014049900695681572,-0.03848451003432274
1773230431190116400,14.808116455078125,0.015882495790719986,0.06291911751031876,0.021380282938480377
1773230431206105600,14.824105712890624,0.028099801391363144,0.025656340643763542,0.042760565876960754
1773230431222128000,14.840128173828125,-0.013439035043120384,-0.015271631069481373,0.05253441259264946
1773230431238118100,14.8561181640625,-0.0555887371301651,0.03237585723400116,0.01771509274840355
1773230431254109400,14.872109375,-0.0354301854968071,0.07696902006864548,-0.03848451003432274
1773230431270104000,14.88810400390625,0.031154127791523933,0.0024434609804302454,-0.07147123664617538
1773230431286122500,14.90412255859375,0.059864792972803116,-0.1007927656173706,-0.13805554807186127
1773230431302114000,14.920114013671874,0.02382374368607998,-0.08857546001672745,-0.15821409225463867
1773230431318104300,14.936104248046876,0.02076941914856434,0.06230825558304787,-0.039095375686883926
1773230431334126800,14.952126953125,0.03298672288656235,0.09224065393209457,0.11484266817569733
1773230431350120200,14.9681201171875,-0.009162978269159794,-0.01038470957428217,0.16004669666290283
1773230431366111000,14.984111083984375,-0.06108652427792549,-0.06169738993048668,0.048258353024721146
1773230431382099700,15.000099609375,-0.06414084881544113,-0.00733038317412138,-0.06475171446800232
1773230431398121200,15.016121337890626,-0.0024434609804302454,0.02382374368607998,-0.06169738993048668
1773230431414112500,15.032112548828126,0.03298672288656235,-0.025045474991202354,-0.012828170321881771
1773230431430106000,15.048106201171874,0.04703662544488907,-0.059864792972803116,-0.009773843921720982
1773230431446126300,15.064126220703125,0.01038470957428217,-0.021991148591041565,0.010995574295520782
1773230431462118000,15.080117919921875,-0.05803219974040985,0.024434609338641167,0.05619960278272629
1773230431478107400,15.096107421875,-0.05497787147760391,0.03481931984424591,0.05192354694008827
1773230431494099200,15.11209912109375,0.042760565876960754,-0.042760565876960754,0.06475171446800232
1773230431510124300,15.128124267578125,0.08124507963657379,-0.06719517707824707,0.033597588539123535
1773230431526112300,15.1441123046875,0.045204028487205505,-0.033597588539123535,-0.05375614017248154
1773230431542105600,15.160105712890624,0.0354301854968071,0.04703662544488907,-0.09896016865968704
1773230431558126300,15.176126220703125,0.045204028487205505,0.0507018156349659,0.003054326167330146
1773230431574115600,15.192115478515625,0.015882495790719986,0.012828170321881771,0.1270599663257599
1773230431590109200,15.208109130859375,-0.021380282938480377,-0.07941248267889023,0.17837265133857727
1773230431606130700,15.224130615234374,-0.029932396486401558,0.01038470957428217,0.08979719132184982
1773230431622120400,15.240120361328126,0.03481931984424591,-0.003054326167330146,-0.07819075137376785
1773230431638111000,15.256111083984376,0.05314527451992035,-0.2480112910270691,-0.26450464129447937
1773230431654104000,15.27210400390625,0.06352998316287994,-0.16249015927314758,-0.4538728892803192
1773230431670126800,15.288126953125,0.06291911751031876,-0.17592918872833252,-0.30970868468284607
1773230431686116400,15.304116455078125,-0.01466076634824276,0.09957103431224823,-0.05925392732024193
1773230431702107100,15.320107177734375,-0.07330382615327835,0.17104226350784302,0.1563815027475357
1773230431718129700,15.336129638671874,-0.08002334833145142,0.07696902006864548,0.21135938167572021
1773230431734120700,15.35212060546875,-0.007941247895359993,-0.13805554807186127,0.14905111491680145
1773230431750113300,15.36811328125,-0.010995574295520782,-0.2028072625398636,-0.018325956538319588
1773230431766102300,15.384102294921876,-0.015271631069481373,-0.036041051149368286,-0.17531833052635193
1773230431782124500,15.40012451171875,0.006108652334660292,0.08491026610136032,-0.13805554807186127
1773230431798115000,15.416114990234375,-0.01466076634824276,0.03787364438176155,-0.07330382615327835
1773230431814105900,15.43210595703125,0.0024434609804302454,-0.11301007121801376,-0.012828170321881771
1773230431830130000,15.4481298828125,0.05497787147760391,-0.0757472887635231,0.018325956538319588
1773230431846121500,15.46412158203125,0.08491026610136032,-0.007941247895359993,0.07941248267889023
1773230431862112000,15.480112060546874,0.05253441259264946,0.07330382615327835,0.1459967941045761
1773230431878103300,15.496103271484374,0.014049900695681572,0.13561208546161652,0.17348572611808777
1773230431894123500,15.51212353515625,-0.05253441259264946,0.10934487730264664,0.10751228034496307
1773230431910116000,15.5281162109375,-0.042760565876960754,0.045204028487205505,0.07147123664617538
1773230431926106400,15.5441064453125,-0.00427605677396059,-0.00427605677396059,0.06475171446800232
1773230431942127600,15.560127685546876,0.019547687843441963,-0.025045474991202354,0.042760565876960754
1773230431958119000,15.576118896484376,0.01466076634824276,-0.00733038317412138,-0.03726277872920036
1773230431974109700,15.592109619140626,-0.021991148591041565,0.059864792972803116,-0.11545353382825851
1773230431990103300,15.608103271484374,0.004886921960860491,0.06108652427792549,-0.08674286305904388
1773230432006122500,15.62412255859375,0.04214970022439957,0.018325956538319588,-0.004886921960860491
1773230432022114000,15.640114013671875,0.05192354694008827,-0.02687807008624077,0.04153883829712868
1773230432038104800,15.656104736328125,0.02932153269648552,-0.007941247895359993,0.04092797264456749
1773230432054127600,15.672127685546876,-0.01710422709584236,0.03848451003432274,0.027488935738801956
1773230432070119700,15.68811962890625,-0.09162978827953339,0.05864306539297104,0.0012217304902151227
1773230432086110200,15.704110107421876,-0.033597588539123535,0.04459316283464432,-0.021380282938480377
1773230432102102300,15.720102294921874,0.08246681094169617,-0.060475658625364304,-0.06108652427792549
1773230432118123500,15.73612353515625,0.08002334833145142,-0.13011430203914642,-0.1313360333442688
1773230432134113800,15.75211376953125,0.025656340643763542,-0.02626720629632473,-0.12400564551353455
1773230432150106600,15.768106689453125,0.003054326167330146,0.08796459436416626,-0.03787364438176155
1773230432166129000,15.78412890625,-0.03176499158143997,0.07208210229873657,0.06841690838336945
1773230432182119000,15.800118896484374,-0.02687807008624077,0.022602014243602753,0.10567969083786011
1773230432198108700,15.816108642578126,-0.015882495790719986,0.025045474991202354,0.07513642311096191
1773230432214100500,15.8321005859375,0.009773843921720982,0.022602014243602753,0.012217304669320583
1773230432230124000,15.8481240234375,0.03481931984424591,-0.04948008432984352,-0.031154127791523933
1773230432246114800,15.86411474609375,-0.0012217304902151227,-0.059864792972803116,-0.039095375686883926
1773230432262104800,15.880104736328125,-0.07757988572120667,0.03726277872920036,-0.01160643994808197
1773230432278126300,15.896126220703126,-0.04459316283464432,0.08307767659425735,0.024434609338641167
1773230432294118000,15.912117919921876,0.04703662544488907,-0.042760565876960754,0.04337143152952194
1773230432310110500,15.9281103515625,0.10751228034496307,-0.17287486791610718,0.015882495790719986
1773230432326101000,15.94410107421875,0.06414084881544113,-0.1411098688840866,-0.0861319974064827
1773230432342123300,15.960123291015625,0.012217304669320583,0.03481931984424591,-0.17837265133857727
1773230432358112800,15.97611279296875,0.036041051149368286,0.08368854224681854,-0.1111774742603302
1773230432374103000,15.99210302734375,0.04459316283464432,-0.03848451003432274,0.048258353024721146
1773230432390125800,16.008125732421874,0.015271631069481373,-0.07147123664617538,0.10384709388017654
1773230432406115000,16.024114990234374,-0.025045474991202354,-0.013439035043120384,0.04581489413976669
1773230432422108700,16.040108642578126,-0.015271631069481373,0.04459316283464432,0.02076941914856434
1773230432438100700,16.056100830078126,-0.03298672288656235,0.04948008432984352,0.019547687843441963
1773230432454119700,16.07211962890625,-0.05375614017248154,-0.0012217304902151227,-0.029932396486401558
1773230432470110500,16.0881103515625,-0.006108652334660292,-0.04459316283464432,-0.07635815441608429
1773230432486102300,16.104102294921876,0.051312681287527084,-0.08918632566928864,-0.05742133408784866
1773230432502124500,16.12012451171875,0.00366519158706069,-0.039095375686883926,-0.04092797264456749
1773230432518117000,16.1361171875,-0.04886921867728233,0.028099801391363144,-0.03726277872920036
1773230432534158600,16.15215869140625,0.00733038317412138,0.036651913076639175,0.015271631069481373
1773230432550148600,16.168148681640623,0.018936822190880775,-0.0012217304902151227,0.03787364438176155
1773230432566173000,16.1841728515625,-0.01710422709584236,-0.04459316283464432,-0.05375614017248154
1773230432582162700,16.20016259765625,-0.018325956538319588,-0.036651913076639175,-0.1569923609495163
1773230432598152200,16.216152099609374,0.025656340643763542,-0.027488935738801956,-0.12522737681865692
1773230432614175200,16.23217529296875,0.021380282938480377,-0.01710422709584236,-0.02076941914856434
1773230432630168000,16.24816796875,-0.0354301854968071,0.039706241339445114,0.06352998316287994
1773230432646156500,16.264156494140625,-0.0403171069920063,0.07635815441608429,0.05375614017248154
1773230432662180000,16.28018017578125,0.01771509274840355,0.021991148591041565,-0.003054326167330146
1773230432678169300,16.29616943359375,0.05375614017248154,-0.0959058403968811,-0.04948008432984352
1773230432694162200,16.312162109375,-0.00366519158706069,-0.04337143152952194,-0.07635815441608429
1773230432710151700,16.328151611328124,-0.012828170321881771,0.06536258012056351,-0.04642575979232788
1773230432726175700,16.34417578125,0.051312681287527084,0.056810468435287476,0.012828170321881771
1773230432742165000,16.3601650390625,0.0403171069920063,-0.056810468435287476,0.027488935738801956
1773230432758157800,16.37615771484375,-0.01771509274840355,-0.1062905490398407,-0.07635815441608429
1773230432774178600,16.392178466796874,-0.007941247895359993,-0.00733038317412138,-0.11301007121801376
1773230432790170000,16.408170166015626,0.02382374368607998,0.027488935738801956,-0.033597588539123535
1773230432806163500,16.42416357421875,0.019547687843441963,0.00366519158706069,0.07024950534105301
1773230432822152000,16.44015185546875,-0.021380282938480377,0.005497787147760391,0.0708603709936142
1773230432838173700,16.456173583984373,-0.03848451003432274,0.04214970022439957,0.05253441259264946
1773230432854168000,16.47216796875,-0.025656340643763542,-0.003054326167330146,0.033597588539123535
1773230432870157800,16.48815771484375,-0.036651913076639175,-0.06719517707824707,0.009162978269159794
1773230432886177300,16.50417724609375,-0.018325956538319588,-0.08429940044879913,-0.01710422709584236
1773230432902169600,16.520169677734376,-0.0012217304902151227,-0.015271631069481373,-0.021380282938480377
1773230432918161000,16.536160888671876,0.024434609338641167,-0.009773843921720982,-0.03726277872920036
1773230432934151200,16.552151123046876,0.04092797264456749,-0.05375614017248154,-0.09712757170200348
1773230432950175500,16.568175537109376,0.04642575979232788,-0.0959058403968811,-0.10812314599752426
1773230432966163700,16.584163818359375,0.004886921960860491,0.007941247895359993,-0.03298672288656235
1773230432982157000,16.600156982421876,-0.02871066704392433,0.10018189996480942,0.0708603709936142
1773230432998178600,16.616178466796875,-0.018936822190880775,0.0659734457731247,0.07757988572120667
1773230433014168600,16.63216845703125,0.021380282938480377,0.010995574295520782,0.028099801391363144
1773230433030162400,16.648162353515627,0.015271631069481373,-0.01038470957428217,-0.009162978269159794
1773230433046152000,16.66415185546875,-0.028099801391363144,0.042760565876960754,-0.03176499158143997
1773230433062172700,16.680172607421873,-0.04581489413976669,0.08979719132184982,-0.021991148591041565
1773230433078164200,16.696164306640625,-0.030543262138962746,0.07147123664617538,-0.01710422709584236
1773230433094155800,16.71215576171875,-0.01771509274840355,-0.04642575979232788,-0.0555887371301651
1773230433110177500,16.728177490234376,0.007941247895359993,-0.09712757170200348,-0.07391469180583954
1773230433126170400,16.74417041015625,0.029932396486401558,-0.02382374368607998,-0.031154127791523933
1773230433142159000,16.7601591796875,0.04703662544488907,0.013439035043120384,0.036041051149368286
1773230433158152400,16.77615234375,0.0024434609804302454,-0.06658431142568588,-0.009773843921720982
1773230433174172700,16.792172607421875,-0.06963863968849182,-0.08002334833145142,-0.08002334833145142
1773230433190166000,16.808166015625,0.01160643994808197,-0.015882495790719986,-0.013439035043120384
1773230433206156000,16.824156005859376,0.07696902006864548,-0.02871066704392433,0.08002334833145142
1773230433222177800,16.840177734375,0.08368854224681854,-0.10995574295520782,0.014049900695681572
1773230433238167800,16.856167724609374,0.0012217304902151227,-0.0555887371301651,-0.1313360333442688
1773230433254160400,16.872160400390626,-0.00427605677396059,0.07635815441608429,-0.10506882518529892
1773230433270151200,16.888151123046875,-0.00733038317412138,0.11178833991289139,0.07819075137376785
1773230433286174000,16.904174072265626,-0.018325956538319588,-0.021380282938480377,0.21563543379306793
1773230433302164700,16.920164794921874,-0.027488935738801956,-0.06963863968849182,0.19303341209888458
1773230433318154200,16.936154296875,-0.01771509274840355,0.04214970022439957,0.12034045159816742
1773230433334177000,16.952177001953125,-0.02321287989616394,0.09407325088977814,0.05803219974040985
1773230433350168000,16.96816796875,-0.03787364438176155,0.04642575979232788,0.01466076634824276
1773230433366158600,16.98415869140625,-0.003054326167330146,0.009773843921720982,0.007941247895359993
1773230433382151200,17.000151123046876,0.025045474991202354,-0.030543262138962746,-0.01160643994808197
1773230433398171000,17.0161708984375,0.030543262138962746,-0.04886921867728233,-0.11545353382825851
1773230433414162200,17.032162109375,0.015882495790719986,0.003054326167330146,-0.15393804013729095
1773230433430156300,17.04815625,0.02076941914856434,0.04459316283464432,-0.0806342139840126
1773230433446177800,17.064177734375,0.007941247895359993,0.07269296050071716,0.04153883829712868
1773230433462166800,17.080166748046874,-0.00855211354792118,0.07757988572120667,0.11789698898792267
1773230433478158300,17.096158447265626,-0.04886921867728233,0.08124507963657379,0.10506882518529892
1773230433494150100,17.112150146484375,-0.08002334833145142,0.036651913076639175,0.059864792972803116
1773230433510173400,17.12817333984375,-0.07819075137376785,0.006108652334660292,0.05497787147760391
1773230433526165200,17.144165283203126,-0.04948008432984352,0.021991148591041565,0.00855211354792118
1773230433542154000,17.160154052734374,-0.024434609338641167,0.014049900695681572,-0.09346238523721695
1773230433558175700,17.17617578125,0.0024434609804302454,0.003054326167330146,-0.14049901068210602
1773230433574166500,17.19216650390625,0.042760565876960754,-0.01466076634824276,-0.09162978827953339
1773230433590160400,17.208160400390625,0.04398229718208313,-0.045204028487205505,0.0012217304902151227
1773230433606180000,17.22418017578125,-0.009162978269159794,0.014049900695681572,0.08429940044879913
1773230433622172200,17.240172119140624,-0.016493361443281174,0.0708603709936142,0.13744467496871948
1773230433638162000,17.256161865234375,-0.02382374368607998,0.05497787147760391,0.09651670604944229
1773230433654152400,17.27215234375,-0.012217304669320583,-0.03420845419168472,-0.02687807008624077
1773230433670176800,17.2881767578125,0.01771509274840355,-0.025656340643763542,-0.1007927656173706
1773230433686166000,17.304166015625,0.012828170321881771,0.02687807008624077,-0.036041051149368286
1773230433702157600,17.320157470703126,-0.02932153269648552,0.06658431142568588,0.06108652427792549
1773230433718178600,17.336178466796873,-0.04581489413976669,0.10201449692249298,0.11239920556545258
1773230433734171000,17.3521708984375,-0.056810468435287476,0.04459316283464432,0.05619960278272629
1773230433750163500,17.36816357421875,-0.04764748737215996,-0.02687807008624077,0.005497787147760391
1773230433766155300,17.3841552734375,0.045204028487205505,-0.04459316283464432,0.036041051149368286
1773230433782174500,17.400174560546876,0.04214970022439957,-0.009773843921720982,0.01771509274840355
1773230433798165500,17.41616552734375,0.004886921960860491,0.0354301854968071,-0.1514945775270462
1773230433814158000,17.432157958984376,0.04337143152952194,0.08796459436416626,-0.2535090744495392
1773230433830149400,17.4481494140625,0.11056660860776901,-0.04398229718208313,-0.1466076523065567
1773230433846172000,17.464171875,0.09040805697441101,-0.20891591906547546,0.03481931984424591
1773230433862162700,17.48016259765625,-0.03237585723400116,-0.05314527451992035,0.11789698898792267
1773230433878152400,17.49615234375,-0.1313360333442688,0.15882496535778046,0.12522737681865692
1773230433894175200,17.51217529296875,-0.08796459436416626,0.06902777403593063,0.08979719132184982
1773230433910167600,17.52816748046875,-0.005497787147760391,-0.27061331272125244,-0.001832595793530345
1773230433926156300,17.54415625,-0.027488935738801956,-0.32559117674827576,-0.12278391420841217
1773230433942180600,17.5601806640625,-0.05925392732024193,-0.1661553531885147,-0.10323622822761536
1773230433958169600,17.576169677734374,-0.01771509274840355,-0.03848451003432274,-0.05803219974040985
1773230433974161200,17.5921611328125,0.01466076634824276,-0.10201449692249298,-0.028099801391363144
1773230433990153000,17.608153076171874,-0.03176499158143997,-0.11972958594560623,-0.012828170321881771
1773230434006175000,17.624175048828125,-0.0757472887635231,-0.014049900695681572,0.06352998316287994
1773230434022167000,17.6401669921875,-0.06719517707824707,0.021380282938480377,0.07269296050071716
1773230434038155800,17.65615576171875,-0.00427605677396059,-0.08552113175392151,-0.010995574295520782
1773230434054177500,17.672177490234375,0.010995574295520782,-0.1270599663257599,-0.07147123664617538
1773230434070170600,17.688170654296876,-0.02871066704392433,0.006108652334660292,-0.013439035043120384
1773230434086161700,17.70416162109375,-0.05009094998240471,0.11728613078594208,0.06352998316287994
1773230434102153000,17.720153076171876,-0.06902777403593063,0.06230825558304787,0.04764748737215996
1773230434118174500,17.736174560546875,-0.04153883829712868,-0.024434609338641167,0.025045474991202354
1773230434134164700,17.752164794921875,-0.039095375686883926,-0.014049900695681572,0.024434609338641167
1773230434150157600,17.768157470703127,-0.02382374368607998,0.012828170321881771,0.01466076634824276
1773230434166177300,17.78417724609375,0.003054326167330146,0.0006108652451075613,-0.05253441259264946
1773230434182169300,17.80016943359375,-0.00366519158706069,-0.005497787147760391,-0.12034045159816742
1773230434198161400,17.816161376953126,-0.03420845419168472,0.04581489413976669,-0.10384709388017654
1773230434214151200,17.832151123046874,-0.024434609338641167,0.07024950534105301,-0.019547687843441963
1773230434230172200,17.848172119140624,0.01038470957428217,0.04764748737215996,0.03726277872920036
1773230434246165200,17.864165283203125,0.02382374368607998,0.018936822190880775,0.05803219974040985
1773230434262155500,17.880155517578125,0.00733038317412138,0.007941247895359993,0.04153883829712868
1773230434278177300,17.89617724609375,-0.05375614017248154,0.048258353024721146,0.02015855349600315
1773230434294169600,17.912169677734376,-0.07696902006864548,0.08857546001672745,0.03298672288656235
1773230434310161400,17.928161376953124,-0.05864306539297104,0.05192354694008827,0.059864792972803116
1773230434326153200,17.9441533203125,0.024434609338641167,-0.04764748737215996,0.033597588539123535
1773230434342171600,17.960171630859374,0.06352998316287994,-0.11667526513338089,-0.051312681287527084
1773230434358164700,17.976164794921875,0.02871066704392433,-0.09224065393209457,-0.04642575979232788
1773230434374154200,17.992154296875,-0.015882495790719986,0.04642575979232788,0.028099801391363144
1773230434390178300,18.00817822265625,-0.07147123664617538,0.15393804013729095,0.05375614017248154
1773230434406170000,18.024170166015626,-0.031154127791523933,0.08491026610136032,0.07696902006864548
1773230434422159400,18.040159423828126,0.05192354694008827,-0.09651670604944229,0.045204028487205505
1773230434438152400,18.05615234375,0.06414084881544113,-0.12461651116609573,-0.07819075137376785
1773230434454173400,18.07217333984375,0.019547687843441963,0.06169738993048668,-0.10812314599752426
1773230434470162200,18.088162109375,-0.04398229718208313,0.21319197118282318,0.0403171069920063
1773230434486156300,18.10415625,-0.0910189226269722,0.1270599663257599,0.16310101747512817
1773230434502177300,18.12017724609375,-0.0507018156349659,-0.056810468435287476,0.14844025671482086
1773230434518168600,18.13616845703125,0.0012217304902151227,-0.12522737681865692,0.05253441259264946
1773230434534158800,18.152158935546876,-0.0024434609804302454,-0.08735372871160507,-0.04459316283464432
1773230434550178800,18.1681787109375,-0.012217304669320583,0.033597588539123535,-0.07819075137376785
1773230434566173000,18.1841728515625,-0.03848451003432274,0.13439035415649414,-0.06475171446800232
1773230434582162000,18.200161865234374,-0.021991148591041565,0.045204028487205505,-0.02871066704392433
1773230434598154000,18.216154052734375,0.018936822190880775,-0.060475658625364304,-0.009773843921720982
1773230434614176000,18.232176025390626,0.06108652427792549,-0.08918632566928864,-0.02015855349600315
1773230434630168300,18.248168212890626,0.028099801391363144,-0.00733038317412138,-0.01771509274840355
1773230434646159000,18.2641591796875,-0.02076941914856434,0.08429940044879913,0.0507018156349659
1773230434662179800,18.280179931640625,-0.060475658625364304,0.09040805697441101,0.06963863968849182
1773230434678173200,18.296173095703125,-0.039706241339445114,0.009162978269159794,0.04459316283464432
1773230434694162000,18.312161865234376,0.014049900695681572,-0.10506882518529892,0.024434609338641167
1773230434710156500,18.328156494140625,0.01466076634824276,-0.12034045159816742,-0.014049900695681572
1773230434726176800,18.3441767578125,-0.042760565876960754,-0.05192354694008827,-0.00855211354792118
1773230434742167300,18.360167236328124,-0.0708603709936142,0.0507018156349659,0.015271631069481373
1773230434758160400,18.376160400390624,-0.025656340643763542,0.006719517521560192,0.04764748737215996
1773230434774179300,18.392179443359375,0.03848451003432274,-0.08674286305904388,0.02015855349600315
1773230434790173700,18.408173583984375,0.030543262138962746,-0.06475171446800232,-0.019547687843441963
1773230434806163700,18.424163818359375,0.02932153269648552,0.01710422709584236,-0.021380282938480377
1773230434822155000,18.440155029296875,0.0006108652451075613,0.056810468435287476,0.009773843921720982
1773230434838175700,18.45617578125,0.02932153269648552,0.04764748737215996,0.08368854224681854
1773230434854166800,18.472166748046874,0.0024434609804302454,0.009773843921720982,0.11362093687057495
1773230434870160000,18.488159912109374,-0.012217304669320583,-0.028099801391363144,0.07880161702632904
1773230434886179600,18.5041796875,-0.05314527451992035,-0.015271631069481373,-0.00855211354792118
1773230434902170000,18.520170166015625,-0.02076941914856434,-0.013439035043120384,-0.022602014243602753
1773230434918162000,18.536161865234376,0.01160643994808197,-0.039706241339445114,0.03481931984424591
1773230434934153000,18.552153076171876,0.00366519158706069,-0.0403171069920063,0.04153883829712868
1773230434950176000,18.568176025390624,-0.009162978269159794,-0.02932153269648552,-0.036041051149368286
1773230434966168300,18.584168212890624,0.005497787147760391,0.01771509274840355,-0.0806342139840126
1773230434982158000,18.600157958984376,0.021991148591041565,-0.00855211354792118,-0.027488935738801956
1773230434998179600,18.6161796875,0.03298672288656235,-0.0659734457731247,0.007941247895359993
1773230435014170000,18.632170166015626,0.015271631069481373,-0.03420845419168472,-0.01038470957428217
1773230435030164000,18.6481640625,0.014049900695681572,0.039706241339445114,-0.010995574295520782
1773230435046153700,18.66415380859375,0.01160643994808197,0.01160643994808197,0.015882495790719986
1773230435062174700,18.6801748046875,-0.02015855349600315,-0.06230825558304787,0.014049900695681572
1773230435078166000,18.696166015625,-0.039095375686883926,-0.06352998316287994,0.01771509274840355
1773230435094156500,18.712156494140626,-0.00733038317412138,-0.03848451003432274,0.04398229718208313
1773230435110180400,18.728180419921873,0.01038470957428217,-0.051312681287527084,0.06475171446800232
1773230435126171600,18.744171630859373,0.012828170321881771,-0.06169738993048668,0.036651913076639175
1773230435142161400,18.760161376953125,0.001832595793530345,-0.0507018156349659,-0.02626720629632473
1773230435158153200,18.7761533203125,-0.01710422709584236,-0.03237585723400116,-0.009162978269159794
1773230435174174000,18.792174072265624,-0.013439035043120384,-0.03481931984424591,0.05925392732024193
1773230435190167000,18.8081669921875,-0.014049900695681572,-0.19853121042251587,0.10506882518529892
1773230435206158300,18.824158447265624,-0.05619960278272629,-0.2535090744495392,0.06414084881544113
1773230435222177800,18.840177734375,-0.05864306539297104,-0.192422553896904,0.06414084881544113
1773230435238168600,18.85616845703125,-0.12217304855585098,-0.4599815309047699,0.21013765037059784
1773230435254160600,18.87216064453125,-0.20097467303276062,-0.5656611919403076,0.4300491213798523
1773230435270153000,18.888153076171875,-0.27488934993743896,-0.3793473243713379,0.6786713004112244
1773230435286175000,18.904175048828126,-0.30604347586631775,-0.1973094791173935,0.8142833709716797
1773230435302165200,18.920165283203126,-0.2730567753314972,-0.07024950534105301,0.7415903806686401
1773230435318157000,18.936156982421874,-0.21441370248794556,-0.0555887371301651,0.5418374538421631
1773230435334177000,18.952177001953125,-0.1362229436635971,-0.08918632566928864,0.2932153046131134
1773230435350168000,18.96816796875,-0.07819075137376785,-0.09346238523721695,0.07696902006864548
1773230435366161700,18.98416162109375,0.012828170321881771,-0.08002334833145142,-0.06536258012056351
1773230435382152200,19.000152099609377,0.0659734457731247,-0.056810468435287476,-0.14782938361167908
1773230435398172400,19.01617236328125,0.05803219974040985,-0.11789698898792267,-0.1667662113904953
1773230435414165800,19.032165771484376,-0.003054326167330146,-0.19608774781227112,-0.15027284622192383
1773230435430156300,19.04815625,-0.03481931984424591,-0.16982053220272064,-0.06291911751031876
1773230435446177800,19.064177734375,0.00427605677396059,-0.04581489413976669,-0.0024434609804302454
1773230435462169000,19.080169189453127,0.02932153269648552,-0.0006108652451075613,-0.01160643994808197
1773230435478161400,19.096161376953123,-0.0006108652451075613,-0.05375614017248154,-0.021380282938480377
1773230435494153200,19.1121533203125,-0.009162978269159794,-0.08185594528913498,0.036041051149368286
1773230435510175000,19.128175048828126,-0.0024434609804302454,-0.06658431142568588,0.13377949595451355
1773230435526165200,19.144165283203126,-0.05192354694008827,0.027488935738801956,0.19120082259178162
1773230435542157000,19.160156982421874,-0.1264491081237793,0.10934487730264664,0.1722639948129654
1773230435558176800,19.1761767578125,-0.19120082259178162,0.1722639948129654,0.19975294172763824
1773230435574168800,19.1921689453125,-0.18570303916931152,0.2431243658065796,0.31520646810531616
1773230435590161200,19.2081611328125,-0.11423180252313614,0.2968805134296417,0.3494149148464203
1773230435606152200,19.224152099609373,-0.016493361443281174,0.26572638750076294,0.24190263450145721
1773230435622172400,19.24017236328125,0.018325956538319588,0.2168571650981903,0.1160643994808197
1773230435638165800,19.256165771484376,0.007941247895359993,0.2828305959701538,0.16920967400074005
1773230435654156000,19.272156005859376,0.0555887371301651,0.4105014503002167,0.3274237811565399
1773230435670179000,19.288178955078124,0.08002334833145142,0.47280970215797424,0.37140607833862305
1773230435686168600,19.30416845703125,0.1569923609495163,0.5797111392021179,0.37079519033432007
1773230435702159000,19.3201591796875,0.06841690838336945,0.543059229850769,0.3445279896259308
1773230435718180600,19.3361806640625,-0.0012217304902151227,0.32131510972976685,0.21013765037059784
1773230435734172200,19.352172119140626,0.0354301854968071,0.16982053220272064,0.13927727937698364
1773230435750165000,19.3681650390625,0.02015855349600315,0.10812314599752426,0.09896016865968704
1773230435766156300,19.38415625,0.012828170321881771,0.12400564551353455,0.02015855349600315
1773230435782175700,19.40017578125,0.028099801391363144,0.11972958594560623,-0.02626720629632473
1773230435798167800,19.416167724609377,0.09712757170200348,0.03420845419168472,-0.042760565876960754
1773230435814158300,19.432158447265625,0.15271630883216858,-0.04398229718208313,-0.056810468435287476
1773230435830183000,19.448182861328124,0.08002334833145142,0.04214970022439957,-0.0555887371301651
1773230435846173700,19.464173583984376,-0.012828170321881771,0.1765400618314743,0.04948008432984352
1773230435862163500,19.48016357421875,-0.016493361443281174,0.12828169763088226,0.16737708449363708
1773230435878154800,19.49615478515625,-0.056810468435287476,-0.02321287989616394,0.11423180252313614
1773230435894177000,19.512177001953123,-0.09651670604944229,-0.07391469180583954,-0.04581489413976669
1773230435910169300,19.52816943359375,-0.01771509274840355,0.07880161702632904,-0.030543262138962746
1773230435926159000,19.5441591796875,0.06475171446800232,0.11911872029304504,0.08735372871160507
1773230435942179300,19.560179443359374,0.04337143152952194,0.13255776464939117,0.15943582355976105
1773230435958171100,19.576171142578126,-0.045204028487205505,0.20830504596233368,0.07269296050071716
1773230435974164000,19.5921640625,-0.09957103431224823,0.27061331272125244,0.12095131725072861
1773230435990156300,19.60815625,-0.013439035043120384,0.32131510972976685,0.2993239760398865
1773230436006175700,19.62417578125,0.16982053220272064,0.37690386176109314,0.3543018400669098
1773230436022167600,19.64016748046875,0.23090706765651703,0.3903428912162781,0.29626965522766113
1773230436038157800,19.65615771484375,0.10506882518529892,0.26083946228027344,0.1466076523065567
1773230436054180400,19.672180419921876,-0.007941247895359993,0.17470745742321014,0.02932153269648552
1773230436070170000,19.688170166015624,0.04337143152952194,0.1612684279680252,0.07452555745840073
1773230436086163200,19.7041630859375,0.2021963894367218,0.17409659922122955,0.10751228034496307
1773230436102153200,19.7201533203125,0.303600013256073,0.17287486791610718,0.10934487730264664
1773230436118174700,19.7361748046875,0.16798794269561768,0.1014036312699318,0.0708603709936142
1773230436134166000,19.752166015625,-0.003054326167330146,0.10018189996480942,-0.009162978269159794
1773230436150159000,19.7681591796875,0.004886921960860491,0.1417207419872284,0.031154127791523933
1773230436166182000,19.784181884765626,0.02626720629632473,0.11423180252313614,0.012828170321881771
1773230436182170600,19.800170654296874,0.05253441259264946,0.12522737681865692,-0.05497787147760391
1773230436198161700,19.81616162109375,0.0861319974064827,0.11789698898792267,-0.12278391420841217
1773230436214154000,19.832154052734374,0.11911872029304504,-0.00366519158706069,-0.1765400618314743
1773230436230176500,19.848176513671874,0.10201449692249298,-0.10995574295520782,-0.17898350954055786
1773230436246167600,19.86416748046875,0.0403171069920063,-0.1563815027475357,-0.22846360504627228
1773230436262158600,19.88015869140625,0.05864306539297104,-0.16859880089759827,-0.2632829248905182
1773230436278178300,19.89617822265625,0.09651670604944229,-0.29077184200286865,-0.24984388053417206
1773230436294170600,19.912170654296876,-0.010995574295520782,-0.5375614166259766,-0.26939156651496887
