time,seconds_elapsed,z,y,x
1773230417066188300,0.684188232421875,-209.39999389648438,-113.15999603271484,-8.09999942779541
1773230417082178600,0.700178466796875,-208.739990234375,-113.0999984741211,-9.59999942779541
1773230417098184200,0.71618408203125,-209.09999084472656,-112.25999450683594,-10.019999504089355
1773230417114193700,0.732193603515625,-208.5,-112.86000061035156,-10.619999885559082
1773230417130185500,0.748185546875,-208.25999450683594,-112.97999572753906,-11.15999984741211
1773230417146174500,0.764174560546875,-208.25999450683594,-112.37999725341797,-10.979999542236328
1773230417162196200,0.7801962890625,-207.05999755859375,-112.25999450683594,-10.679999351501465
1773230417178189600,0.796189453125,-207.47999572753906,-112.79999542236328,-10.619999885559082
1773230417194178800,0.8121787109375,-207.72000122070312,-113.15999603271484,-10.979999542236328
1773230417210171400,0.82817138671875,-207.83999633789062,-113.22000122070312,-10.800000190734863
1773230417226192400,0.8441923828125,-208.1999969482422,-112.91999816894531,-10.800000190734863
1773230417242183400,0.860183349609375,-208.5,-111.72000122070312,-10.859999656677246
1773230417282194200,0.900194091796875,-207.59999084472656,-112.73999786376953,-10.920000076293945
1773230417298183200,0.91618310546875,-207.6599884033203,-113.22000122070312,-10.979999542236328
1773230417314175500,0.932175537109375,-208.0800018310547,-113.0999984741211,-10.260000228881836
1773230417330197000,0.948197021484375,-208.5,-112.55999755859375,-10.199999809265137
1773230417346187800,0.964187744140625,-207.239990234375,-111.5999984741211,-10.4399995803833
1773230417362178800,0.9801787109375,-207,-111.89999389648438,-10.380000114440918
1773230417378170000,0.996170166015625,-208.0800018310547,-112.07999420166016,-11.579999923706055
1773230417393810000,1.011809814453125,-207.29998779296875,-112.37999725341797,-11.399999618530273
1773230417410184200,1.02818408203125,-206.94000244140625,-112.68000030517578,-10.380000114440918
1773230417426175200,1.04417529296875,-207.5399932861328,-112.5,-10.380000114440918
1773230417442197800,1.06019775390625,-207.17999267578125,-112.43999481201172,-10.5
1773230417458188300,1.076188232421875,-206.63999938964844,-112.6199951171875,-10.920000076293945
1773230417474179600,1.0921796875,-207.1199951171875,-112.79999542236328,-11.279999732971191
1773230417490170600,1.108170654296875,-208.1999969482422,-112.25999450683594,-10.619999885559082
1773230417506192100,1.124192138671875,-208.13999938964844,-112.25999450683594,-10.319999694824219
1773230417522184000,1.140183837890625,-207.36000061035156,-112.97999572753906,-10.679999351501465
1773230417538174700,1.1561748046875,-207.5399932861328,-112.55999755859375,-10.739999771118164
1773230417554196200,1.1721962890625,-207.4199981689453,-112.13999938964844,-11.039999961853027
1773230417570187500,1.1881875,-207.1199951171875,-112.31999969482422,-10.079999923706055
1773230417586177000,1.204177001953125,-207.5399932861328,-112.07999420166016,-10.319999694824219
1773230417602201300,1.220201416015625,-207.47999572753906,-112.6199951171875,-10.800000190734863
1773230417618190600,1.236190673828125,-207.17999267578125,-113.22000122070312,-10.319999694824219
1773230417634182400,1.252182373046875,-207.5399932861328,-113.39999389648438,-10.319999694824219
1773230417650174000,1.268174072265625,-208.13999938964844,-112.86000061035156,-10.859999656677246
1773230417666195200,1.2841953125,-207.59999084472656,-111.47999572753906,-10.920000076293945
1773230417682186500,1.3001865234375,-207.47999572753906,-111.83999633789062,-10.199999809265137
1773230417698176500,1.316176513671875,-208.1999969482422,-113.22000122070312,-10.5
1773230417714169600,1.332169677734375,-208.5,-113.04000091552734,-11.039999961853027
1773230417730190800,1.34819091796875,-208.37998962402344,-112.79999542236328,-10.859999656677246
1773230417746183000,1.364182861328125,-208.9199981689453,-112.91999816894531,-10.380000114440918
1773230417762174200,1.38017431640625,-208.9199981689453,-112.91999816894531,-10.139999389648438
1773230417778193700,1.396193603515625,-209.39999389648438,-113.33999633789062,-9.960000038146973
1773230417794187500,1.4121875,-210.05999755859375,-113.5199966430664,-10.619999885559082
1773230417810178300,1.42817822265625,-209.63999938964844,-113.0999984741211,-11.039999961853027
1773230417826199000,1.444198974609375,-209.39999389648438,-113.27999877929688,-10.859999656677246
1773230417842191600,1.460191650390625,-209.09999084472656,-113.63999938964844,-10.920000076293945
1773230417858182000,1.476181884765625,-209.09999084472656,-113.15999603271484,-11.039999961853027
1773230417874174200,1.49217431640625,-208.739990234375,-113.45999908447266,-10.619999885559082
1773230417890195200,1.5081953125,-208.3199920654297,-113.57999420166016,-9.779999732971191
1773230417906186200,1.524186279296875,-208.1999969482422,-112.86000061035156,-10.380000114440918
1773230417922176800,1.5401767578125,-208.13999938964844,-113.33999633789062,-10.800000190734863
1773230417938199300,1.55619921875,-208.5,-113.39999389648438,-10.380000114440918
1773230417954189600,1.572189453125,-208.6199951171875,-112.5,-9.899999618530273
1773230417970181600,1.588181640625,-208.739990234375,-113.0999984741211,-9.239999771118164
1773230417986173000,1.6041728515625,-209.94000244140625,-113.81999969482422,-9.719999313354492
1773230418002195500,1.620195556640625,-210.05999755859375,-113.93999481201172,-10.619999885559082
1773230418018186000,1.63618603515625,-208.9199981689453,-114.54000091552734,-10.4399995803833
1773230418034178300,1.65217822265625,-208.44000244140625,-114.05999755859375,-10.139999389648438
1773230418050169600,1.668169677734375,-208.0800018310547,-113.39999389648438,-10.380000114440918
1773230418066188500,1.6841884765625,-208.1999969482422,-113.27999877929688,-10.559999465942383
1773230418082180400,1.700180419921875,-208.3199920654297,-113.27999877929688,-10.979999542236328
1773230418098171600,1.716171630859375,-208.37998962402344,-113.04000091552734,-10.559999465942383
1773230418114195000,1.73219482421875,-208.55999755859375,-113.39999389648438,-9.960000038146973
1773230418130185700,1.748185791015625,-208.13999938964844,-113.69999694824219,-10.079999923706055
1773230418146177300,1.76417724609375,-208.01998901367188,-113.5199966430664,-9.960000038146973
1773230418162199600,1.780199462890625,-208.86000061035156,-112.86000061035156,-9.899999618530273
1773230418178188500,1.7961884765625,-209.27999877929688,-112.13999938964844,-10.260000228881836
1773230418194181000,1.81218115234375,-208.3199920654297,-112.55999755859375,-10.079999923706055
1773230418210173000,1.8281728515625,-207.95999145507812,-113.04000091552734,-9.779999732971191
1773230418226194200,1.844194091796875,-208.3199920654297,-113.04000091552734,-10.079999923706055
1773230418242184200,1.86018408203125,-207.89999389648438,-112.91999816894531,-10.139999389648438
1773230418258175700,1.87617578125,-207.77999877929688,-113.15999603271484,-9.779999732971191
1773230418274199000,1.892198974609375,-208.3199920654297,-113.04000091552734,-9.719999313354492
1773230418290189300,1.908189208984375,-208.44000244140625,-112.91999816894531,-9.84000015258789
1773230418306179600,1.9241796875,-208.13999938964844,-112.68000030517578,-10.019999504089355
1773230418322172200,1.940172119140625,-207.83999633789062,-112.68000030517578,-10.139999389648438
1773230418338193400,1.956193359375,-208.3199920654297,-113.5199966430664,-10.019999504089355
1773230418354183700,1.97218359375,-208.5,-112.91999816894531,-10.139999389648438
1773230418370176500,1.988176513671875,-207.89999389648438,-112.13999938964844,-10.4399995803833
1773230418386197500,2.004197509765625,-207.6599884033203,-112.43999481201172,-10.260000228881836
1773230418402190000,2.020190185546875,-207.77999877929688,-112.91999816894531,-10.199999809265137
1773230418418181400,2.036181396484375,-208.1999969482422,-112.97999572753906,-10.979999542236328
1773230418434172000,2.052171875,-208.5,-112.6199951171875,-10.4399995803833
1773230418450194400,2.0681943359375,-208.13999938964844,-112.19999694824219,-9.960000038146973
1773230418466185200,2.084185302734375,-208.3199920654297,-112.37999725341797,-10.679999351501465
1773230418482176300,2.10017626953125,-208.3199920654297,-112.55999755859375,-10.199999809265137
1773230418498197800,2.11619775390625,-208.79998779296875,-112.73999786376953,-10.139999389648438
1773230418514186200,2.132186279296875,-208.6199951171875,-113.15999603271484,-10.559999465942383
1773230418530179800,2.148179931640625,-207.5399932861328,-112.86000061035156,-10.019999504089355
1773230418546169000,2.164169189453125,-207.4199981689453,-112.55999755859375,-10.139999389648438
1773230418562193700,2.180193603515625,-207.05999755859375,-112.73999786376953,-10.5
1773230418578183700,2.19618359375,-207.239990234375,-113.27999877929688,-11.039999961853027
1773230418594174500,2.212174560546875,-207.6599884033203,-113.39999389648438,-10.800000190734863
1773230418610196500,2.228196533203125,-207.36000061035156,-113.27999877929688,-10.319999694824219
1773230418626187800,2.244187744140625,-207.77999877929688,-112.55999755859375,-10.559999465942383
1773230418642180000,2.26018017578125,-207.59999084472656,-112.91999816894531,-10.199999809265137
1773230418658199300,2.27619921875,-207.6599884033203,-113.75999450683594,-10.559999465942383
1773230418674193700,2.292193603515625,-208.44000244140625,-113.39999389648438,-10.319999694824219
1773230418690184400,2.308184326171875,-208.25999450683594,-113.27999877929688,-9.899999618530273
1773230418706176000,2.324176025390625,-208.01998901367188,-113.27999877929688,-10.019999504089355
1773230418722197000,2.340197021484375,-207.59999084472656,-113.87999725341797,-9.779999732971191
1773230418738189000,2.35618896484375,-207.05999755859375,-113.75999450683594,-10.260000228881836
1773230418754178300,2.37217822265625,-207.59999084472656,-112.73999786376953,-9.960000038146973
1773230418770168800,2.3881689453125,-208.25999450683594,-112.5,-9.65999984741211
1773230418786191600,2.404191650390625,-208.739990234375,-113.04000091552734,-9.479999542236328
1773230418802183000,2.420182861328125,-208.55999755859375,-113.15999603271484,-9.479999542236328
1773230418818174200,2.43617431640625,-207.29998779296875,-112.5,-10.079999923706055
1773230418834197200,2.452197265625,-206.87998962402344,-113.04000091552734,-10.019999504089355
1773230418850186800,2.468186767578125,-207.72000122070312,-113.69999694824219,-9.899999618530273
1773230418866178300,2.48417822265625,-207.59999084472656,-113.81999969482422,-9.59999942779541
1773230418882170600,2.500170654296875,-207.5399932861328,-113.39999389648438,-9.719999313354492
1773230418898191000,2.516191162109375,-207.47999572753906,-113.5199966430664,-9.719999313354492
1773230418914184000,2.532183837890625,-207.5399932861328,-113.87999725341797,-9.479999542236328
1773230418930175000,2.548175048828125,-208.44000244140625,-113.5199966430664,-9.779999732971191
1773230418946196000,2.564196044921875,-207.59999084472656,-113.33999633789062,-9.119999885559082
1773230418962187300,2.580187255859375,-207.239990234375,-113.27999877929688,-9.059999465942383
1773230418978179300,2.596179443359375,-207.47999572753906,-114.23999786376953,-9.84000015258789
1773230418994169900,2.612169921875,-207.77999877929688,-113.69999694824219,-10.199999809265137
1773230419010190800,2.62819091796875,-207.6599884033203,-112.86000061035156,-10.380000114440918
1773230419026183000,2.644182861328125,-207.47999572753906,-112.68000030517578,-10.019999504089355
1773230419042174000,2.660174072265625,-208.3199920654297,-112.68000030517578,-9.84000015258789
1773230419058195700,2.67619580078125,-207.6599884033203,-112.43999481201172,-10.079999923706055
1773230419074187500,2.6921875,-207.89999389648438,-112.0199966430664,-10.199999809265137
1773230419090178300,2.70817822265625,-208.86000061035156,-112.73999786376953,-9.960000038146973
1773230419106168800,2.7241689453125,-207.77999877929688,-113.33999633789062,-9.84000015258789
1773230419122191000,2.740191162109375,-207,-113.5199966430664,-10.199999809265137
1773230419138182700,2.7561826171875,-206.5800018310547,-112.68000030517578,-10.380000114440918
1773230419154172700,2.772172607421875,-206.94000244140625,-112.25999450683594,-10.019999504089355
1773230419170194000,2.78819384765625,-207.72000122070312,-112.43999481201172,-9.59999942779541
1773230419186187300,2.804187255859375,-206.94000244140625,-112.43999481201172,-9.239999771118164
1773230419202177000,2.820177001953125,-206.87998962402344,-113.27999877929688,-9.239999771118164
1773230419218199800,2.83619970703125,-207.36000061035156,-113.63999938964844,-9.420000076293945
1773230419234190800,2.85219091796875,-206.8199920654297,-113.04000091552734,-9.300000190734863
1773230419250182100,2.86818212890625,-207.29998779296875,-112.0199966430664,-9.420000076293945
1773230419266172200,2.884172119140625,-207.83999633789062,-112.13999938964844,-9.420000076293945
1773230419282195500,2.900195556640625,-207.6599884033203,-113.39999389648438,-9.539999961853027
1773230419298184700,2.916184814453125,-207.29998779296875,-113.04000091552734,-10.019999504089355
1773230419314176000,2.932176025390625,-206.63999938964844,-112.25999450683594,-10.139999389648438
1773230419330199000,2.948198974609375,-207.17999267578125,-112.5,-9.84000015258789
1773230419346191000,2.964191162109375,-207.36000061035156,-112.79999542236328,-10.199999809265137
1773230419362182000,2.980181884765625,-207.47999572753906,-113.04000091552734,-9.84000015258789
1773230419378174000,2.996174072265625,-207.77999877929688,-113.69999694824219,-9.300000190734863
1773230419394195700,3.01219580078125,-206.87998962402344,-113.63999938964844,-10.380000114440918
1773230419410186000,3.02818603515625,-207.4199981689453,-112.91999816894531,-10.079999923706055
1773230419426177500,3.044177490234375,-207.5399932861328,-112.55999755859375,-9.539999961853027
1773230419442197800,3.06019775390625,-207.05999755859375,-112.97999572753906,-10.319999694824219
1773230419458190300,3.0761904296875,-207.5399932861328,-113.0999984741211,-10.319999694824219
1773230419474182100,3.09218212890625,-207.95999145507812,-112.19999694824219,-9.899999618530273
1773230419490172000,3.108171875,-207.6599884033203,-112.55999755859375,-10.199999809265137
1773230419506194700,3.124194580078125,-206.6999969482422,-113.5199966430664,-9.960000038146973
1773230419522186000,3.14018603515625,-207.47999572753906,-112.86000061035156,-9.479999542236328
1773230419538176500,3.156176513671875,-207.83999633789062,-112.55999755859375,-9.479999542236328
1773230419554198800,3.17219873046875,-207.4199981689453,-112.68000030517578,-9.719999313354492
1773230419570190000,3.188190185546875,-207,-112.07999420166016,-9.539999961853027
1773230419586181400,3.204181396484375,-206.75999450683594,-112.31999969482422,-9.65999984741211
1773230419602171400,3.22017138671875,-207.5399932861328,-112.68000030517578,-10.139999389648438
1773230419618192600,3.236192626953125,-207.59999084472656,-112.25999450683594,-9.899999618530273
1773230419634185700,3.252185791015625,-207.29998779296875,-112.5,-10.199999809265137
1773230419650175700,3.26817578125,-207.72000122070312,-112.73999786376953,-10.260000228881836
1773230419666196500,3.284196533203125,-208.13999938964844,-112.79999542236328,-9.420000076293945
1773230419682190000,3.300190185546875,-207.95999145507812,-112.97999572753906,-9.179999351501465
1773230419698180400,3.316180419921875,-207.59999084472656,-112.55999755859375,-9.779999732971191
1773230419714171600,3.332171630859375,-207.83999633789062,-112.5,-10.199999809265137
1773230419730193400,3.348193359375,-207.72000122070312,-112.43999481201172,-9.179999351501465
1773230419746184700,3.364184814453125,-207.6599884033203,-112.25999450683594,-9.119999885559082
1773230419762176000,3.380176025390625,-207.17999267578125,-112.55999755859375,-9.719999313354492
1773230419778196700,3.39619677734375,-206.22000122070312,-113.22000122070312,-9.899999618530273
1773230419794187800,3.412187744140625,-206.5800018310547,-113.0999984741211,-10.5
1773230419810180400,3.428180419921875,-207.239990234375,-112.25999450683594,-10.5
1773230419826171600,3.444171630859375,-207.17999267578125,-112.19999694824219,-10.079999923706055
1773230419842191600,3.460191650390625,-207.47999572753906,-112.0199966430664,-9.899999618530273
1773230419858184000,3.476183837890625,-206.94000244140625,-112.07999420166016,-9.84000015258789
1773230419874176000,3.492176025390625,-206.45999145507812,-112.37999725341797,-9.539999961853027
1773230419890197200,3.508197265625,-206.39999389648438,-112.43999481201172,-9.59999942779541
1773230419906189300,3.524189208984375,-205.79998779296875,-112.37999725341797,-9.719999313354492
1773230419922180600,3.5401806640625,-206.6999969482422,-112.37999725341797,-9.960000038146973
1773230419938201300,3.556201416015625,-207.05999755859375,-112.31999969482422,-10.019999504089355
1773230419954193000,3.57219287109375,-207.36000061035156,-112.0199966430664,-9.84000015258789
1773230419970183400,3.588183349609375,-207.77999877929688,-112.13999938964844,-9.539999961853027
1773230419986173000,3.6041728515625,-207.17999267578125,-112.55999755859375,-9.179999351501465
1773230420002197800,3.62019775390625,-206.94000244140625,-112.37999725341797,-9.239999771118164
1773230420018187800,3.636187744140625,-207.17999267578125,-111.83999633789062,-9.420000076293945
1773230420034178300,3.65217822265625,-207.4199981689453,-111.77999877929688,-9.779999732971191
1773230420050201600,3.66820166015625,-207.77999877929688,-112.07999420166016,-9.300000190734863
1773230420066191000,3.684191162109375,-207.72000122070312,-112.31999969482422,-9.59999942779541
1773230420082182000,3.700181884765625,-207.83999633789062,-111.95999908447266,-10.079999923706055
1773230420098174200,3.71617431640625,-207.83999633789062,-112.0199966430664,-9.84000015258789
1773230420114197000,3.732197021484375,-207.47999572753906,-112.19999694824219,-9.420000076293945
1773230420130187800,3.748187744140625,-207.72000122070312,-112.25999450683594,-8.819999694824219
1773230420146179000,3.764178955078125,-207.72000122070312,-111.36000061035156,-9.420000076293945
1773230420162200600,3.78020068359375,-207.95999145507812,-111.5999984741211,-9.479999542236328
1773230420178191400,3.79619140625,-207.59999084472656,-112.07999420166016,-9.719999313354492
1773230420194183700,3.81218359375,-207.239990234375,-111.5999984741211,-9.65999984741211
1773230420210173200,3.828173095703125,-207.4199981689453,-111.89999389648438,-9.119999885559082
1773230420226195200,3.8441953125,-207.05999755859375,-111.77999877929688,-9.059999465942383
1773230420242185700,3.860185791015625,-207.05999755859375,-111.29999542236328,-9.059999465942383
1773230420258177300,3.87617724609375,-207.05999755859375,-111.47999572753906,-9.65999984741211
1773230420274199000,3.892198974609375,-207.29998779296875,-111.41999816894531,-9.65999984741211
1773230420290191000,3.908191162109375,-207.77999877929688,-111.5999984741211,-9.359999656677246
1773230420306182000,3.924181884765625,-207.5399932861328,-111.89999389648438,-9.59999942779541
1773230420322174700,3.9401748046875,-207.29998779296875,-111.36000061035156,-9.300000190734863
1773230420338195700,3.95619580078125,-207.36000061035156,-112.37999725341797,-9.65999984741211
1773230420354186800,3.972186767578125,-207.239990234375,-112.6199951171875,-10.319999694824219
1773230420370177500,3.988177490234375,-207.17999267578125,-112.25999450683594,-10.319999694824219
1773230420386200600,4.00420068359375,-206.87998962402344,-111.83999633789062,-10.199999809265137
1773230420402188500,4.0201884765625,-206.87998962402344,-111.89999389648438,-9.960000038146973
1773230420418182700,4.0361826171875,-206.94000244140625,-112.0199966430664,-9.300000190734863
1773230420434173200,4.052173095703125,-207.36000061035156,-111.77999877929688,-9.960000038146973
1773230420450194400,4.0681943359375,-207.239990234375,-112.5,-10.019999504089355
1773230420466187500,4.0841875,-207.6599884033203,-112.13999938964844,-10.319999694824219
1773230420482178000,4.100177978515625,-208.01998901367188,-111.65999603271484,-10.260000228881836
1773230420498200600,4.11620068359375,-208.01998901367188,-112.0199966430664,-9.84000015258789
1773230420514190300,4.1321904296875,-207.89999389648438,-112.5,-9.420000076293945
1773230420530183000,4.148182861328125,-207.77999877929688,-112.5,-8.9399995803833
1773230420546171400,4.16417138671875,-207.83999633789062,-112.68000030517578,-9.539999961853027
1773230420562195700,4.18019580078125,-208.01998901367188,-112.25999450683594,-9.84000015258789
1773230420578186200,4.196186279296875,-207.89999389648438,-112.07999420166016,-9.239999771118164
1773230420594178000,4.212177978515625,-208.6199951171875,-112.6199951171875,-9.59999942779541
1773230420610199000,4.228198974609375,-208.55999755859375,-112.43999481201172,-9.539999961853027
1773230420626189800,4.24418994140625,-207.83999633789062,-112.25999450683594,-9.300000190734863
1773230420642180600,4.2601806640625,-207.6599884033203,-111.89999389648438,-9.179999351501465
1773230420658202600,4.27620263671875,-207.59999084472656,-111.41999816894531,-9.300000190734863
1773230420674193700,4.292193603515625,-207.72000122070312,-111.72000122070312,-9.359999656677246
1773230420690185700,4.308185791015625,-207.4199981689453,-112.19999694824219,-9.479999542236328
1773230420706175200,4.32417529296875,-207.29998779296875,-112.0199966430664,-9.479999542236328
1773230420722198500,4.340198486328125,-207.5399932861328,-111.83999633789062,-9.719999313354492
1773230420738188800,4.356188720703125,-207.6599884033203,-112.25999450683594,-9.65999984741211
1773230420754181000,4.37218115234375,-207.36000061035156,-112.13999938964844,-9.65999984741211
1773230420770203000,4.388202880859375,-206.51998901367188,-111.95999908447266,-9.960000038146973
1773230420786192400,4.4041923828125,-206.75999450683594,-112.19999694824219,-9.359999656677246
1773230420802186200,4.420186279296875,-207.59999084472656,-112.19999694824219,-9.65999984741211
1773230420818175500,4.436175537109375,-207.47999572753906,-112.25999450683594,-9.960000038146973
1773230420834197500,4.452197509765625,-207.05999755859375,-112.13999938964844,-10.199999809265137
1773230420850189000,4.46818896484375,-207.17999267578125,-112.19999694824219,-10.559999465942383
1773230420866182000,4.484181884765625,-207.72000122070312,-112.68000030517578,-10.019999504089355
1773230420882171600,4.500171630859375,-207.6599884033203,-112.37999725341797,-9.899999618530273
1773230420898194200,4.516194091796875,-207.59999084472656,-111.72000122070312,-10.079999923706055
1773230420914184200,4.53218408203125,-207.59999084472656,-112.13999938964844,-9.420000076293945
1773230420930176000,4.548176025390625,-207.59999084472656,-112.25999450683594,-9.719999313354492
1773230420946196200,4.5641962890625,-207.95999145507812,-112.07999420166016,-9.960000038146973
1773230420962189300,4.580189208984375,-207.6599884033203,-111.65999603271484,-9.359999656677246
1773230420978180400,4.596180419921875,-207.72000122070312,-112.13999938964844,-9.479999542236328
1773230420994172200,4.612172119140625,-208.25999450683594,-112.73999786376953,-9.420000076293945
1773230421010193000,4.62819287109375,-208.44000244140625,-112.73999786376953,-9.84000015258789
1773230421026184400,4.644184326171875,-208.86000061035156,-112.19999694824219,-9.84000015258789
1773230421042175200,4.66017529296875,-208.3199920654297,-111.65999603271484,-9.059999465942383
1773230421058198500,4.676198486328125,-207.59999084472656,-112.31999969482422,-9
1773230421074188300,4.692188232421875,-207.83999633789062,-112.6199951171875,-9.239999771118164
1773230421090179800,4.708179931640625,-207.83999633789062,-112.07999420166016,-9.300000190734863
1773230421106202600,4.72420263671875,-208.1999969482422,-111.83999633789062,-9.239999771118164
1773230421122193000,4.74019287109375,-208.55999755859375,-113.0999984741211,-9.539999961853027
1773230421138183200,4.75618310546875,-208.3199920654297,-113.22000122070312,-9.65999984741211
1773230421154176300,4.77217626953125,-207.89999389648438,-112.19999694824219,-8.880000114440918
1773230421170196700,4.78819677734375,-207.29998779296875,-112.13999938964844,-8.880000114440918
1773230421186188000,4.80418798828125,-207.17999267578125,-112.5,-9.420000076293945
1773230421202179600,4.8201796875,-207.72000122070312,-112.86000061035156,-9.359999656677246
1773230421218200600,4.83620068359375,-207.47999572753906,-113.15999603271484,-9.420000076293945
1773230421234193200,4.852193115234375,-207.17999267578125,-112.43999481201172,-9.59999942779541
1773230421250182700,4.8681826171875,-207.239990234375,-111.89999389648438,-9.479999542236328
1773230421266175200,4.88417529296875,-207.4199981689453,-111.89999389648438,-9.59999942779541
1773230421282197500,4.900197509765625,-207.95999145507812,-111.41999816894531,-10.019999504089355
1773230421298188500,4.9161884765625,-208.01998901367188,-111.72000122070312,-10.260000228881836
1773230421314179800,4.932179931640625,-208.86000061035156,-112.37999725341797,-10.260000228881836
1773230421330200300,4.948200439453125,-208.13999938964844,-112.55999755859375,-10.260000228881836
1773230421346191400,4.96419140625,-207.59999084472656,-112.5,-10.019999504089355
1773230421362182100,4.98018212890625,-208.01998901367188,-112.19999694824219,-9.779999732971191
1773230421378175000,4.996175048828125,-207.17999267578125,-112.73999786376953,-10.319999694824219
1773230421394195500,5.012195556640625,-207.4199981689453,-113.27999877929688,-10.260000228881836
1773230421410187500,5.0281875,-207.77999877929688,-112.37999725341797,-9.479999542236328
1773230421426178800,5.0441787109375,-207.83999633789062,-112.31999969482422,-10.019999504089355
1773230421442170600,5.060170654296875,-207.77999877929688,-112.97999572753906,-10.5
1773230421458192400,5.0761923828125,-208.13999938964844,-112.73999786376953,-10.260000228881836
1773230421474180400,5.092180419921875,-207.5399932861328,-113.0999984741211,-10.4399995803833
1773230421490174000,5.108174072265625,-207.6599884033203,-112.91999816894531,-10.559999465942383
1773230421506195500,5.124195556640625,-207.77999877929688,-112.37999725341797,-10.199999809265137
1773230421522187500,5.1401875,-207,-112.86000061035156,-9.84000015258789
1773230421538177300,5.15617724609375,-208.13999938964844,-113.27999877929688,-9.719999313354492
1773230421554200000,5.172199951171875,-208.79998779296875,-113.15999603271484,-9.59999942779541
1773230421570190800,5.18819091796875,-208.67999267578125,-112.13999938964844,-10.019999504089355
1773230421586183700,5.20418359375,-208.55999755859375,-112.13999938964844,-10.019999504089355
1773230421602174700,5.2201748046875,-208.86000061035156,-112.6199951171875,-9.65999984741211
1773230421618195700,5.23619580078125,-208.67999267578125,-112.5,-10.199999809265137
1773230421634185500,5.252185546875,-208.25999450683594,-112.31999969482422,-10.619999885559082
1773230421650177800,5.268177734375,-207.95999145507812,-112.19999694824219,-10.260000228881836
1773230421666200300,5.284200439453125,-208.0800018310547,-112.6199951171875,-9.960000038146973
1773230421682192000,5.30019189453125,-208.5,-112.5,-9.539999961853027
1773230421698181600,5.316181640625,-208.01998901367188,-112.07999420166016,-9
1773230421714174000,5.332174072265625,-207.72000122070312,-111.89999389648438,-9.479999542236328
1773230421730195500,5.348195556640625,-207.47999572753906,-112.43999481201172,-10.139999389648438
1773230421746187000,5.36418701171875,-207.47999572753906,-112.68000030517578,-10.4399995803833
1773230421762177300,5.38017724609375,-208.01998901367188,-112.55999755859375,-10.079999923706055
1773230421778200300,5.396200439453125,-208.1999969482422,-113.22000122070312,-9.300000190734863
1773230421794191000,5.412191162109375,-207.77999877929688,-112.97999572753906,-9.059999465942383
1773230421810181400,5.428181396484375,-208.0800018310547,-112.25999450683594,-9.359999656677246
1773230421826204200,5.4442041015625,-208.3199920654297,-112.55999755859375,-9.719999313354492
1773230421842193400,5.460193359375,-207.89999389648438,-112.79999542236328,-10.079999923706055
1773230421858186800,5.476186767578125,-208.13999938964844,-112.55999755859375,-9.84000015258789
1773230421874177800,5.492177734375,-208.25999450683594,-112.55999755859375,-9.420000076293945
1773230421890199600,5.508199462890625,-208.37998962402344,-113.45999908447266,-9.65999984741211
1773230421906189000,5.52418896484375,-208.37998962402344,-113.45999908447266,-9.59999942779541
1773230421922181000,5.54018115234375,-208.01998901367188,-113.04000091552734,-9.420000076293945
1773230421938203600,5.55620361328125,-207.6599884033203,-112.91999816894531,-9.59999942779541
1773230421954195200,5.5721953125,-207.89999389648438,-112.43999481201172,-9.899999618530273
1773230421970184700,5.588184814453125,-208.44000244140625,-112.43999481201172,-9.65999984741211
1773230421986176800,5.6041767578125,-208.3199920654297,-112.19999694824219,-9.59999942779541
1773230422002198500,5.620198486328125,-208.5,-112.25999450683594,-10.079999923706055
1773230422018188800,5.636188720703125,-208.25999450683594,-112.68000030517578,-9.84000015258789
1773230422034180000,5.65218017578125,-207.5399932861328,-112.73999786376953,-9.84000015258789
1773230422050203000,5.668202880859375,-208.13999938964844,-113.33999633789062,-10.139999389648438
1773230422066195000,5.68419482421875,-209.0399932861328,-113.5199966430664,-10.199999809265137
1773230422082185500,5.700185546875,-208.25999450683594,-112.73999786376953,-10.319999694824219
1773230422098175500,5.716175537109375,-207.239990234375,-112.43999481201172,-10.679999351501465
1773230422114198000,5.732197998046875,-207.77999877929688,-112.68000030517578,-10.019999504089355
1773230422130188800,5.748188720703125,-207.77999877929688,-113.15999603271484,-9.420000076293945
1773230422146180600,5.7641806640625,-208.01998901367188,-113.57999420166016,-9.479999542236328
1773230422162202400,5.780202392578125,-208.1999969482422,-113.45999908447266,-9.719999313354492
1773230422178194200,5.796194091796875,-207.47999572753906,-113.04000091552734,-10.199999809265137
1773230422194185000,5.81218505859375,-207.5399932861328,-112.91999816894531,-10.199999809265137
1773230422210176300,5.82817626953125,-207.72000122070312,-113.33999633789062,-10.139999389648438
1773230422226198000,5.844197998046875,-207.47999572753906,-113.27999877929688,-10.139999389648438
1773230422242188000,5.86018798828125,-207.59999084472656,-113.33999633789062,-9.960000038146973
1773230422258179000,5.876178955078125,-208.0800018310547,-113.57999420166016,-9.539999961853027
1773230422274200800,5.892200927734375,-207.95999145507812,-113.87999725341797,-9.960000038146973
1773230422290122500,5.90812255859375,-207.77999877929688,-114.1199951171875,-10.019999504089355
1773230422306115300,5.924115234375,-207.59999084472656,-114.18000030517578,-9.84000015258789
1773230422322105000,5.94010498046875,-207.5399932861328,-113.22000122070312,-9.359999656677246
1773230422338127400,5.95612744140625,-208.0800018310547,-113.5199966430664,-9.059999465942383
1773230422354119000,5.972118896484375,-208.44000244140625,-113.63999938964844,-9.84000015258789
1773230422370110700,5.98811083984375,-208.5,-113.15999603271484,-9.59999942779541
1773230422386131500,6.00413134765625,-208.37998962402344,-113.04000091552734,-9
1773230422402122500,6.02012255859375,-207.6599884033203,-113.15999603271484,-10.019999504089355
1773230422418115300,6.036115234375,-207,-113.33999633789062,-10.079999923706055
1773230422434104300,6.052104248046875,-207.72000122070312,-113.63999938964844,-9.420000076293945
1773230422450097200,6.06809716796875,-209.1599884033203,-113.22000122070312,-9.179999351501465
1773230422466120200,6.0841201171875,-208.3199920654297,-112.79999542236328,-9.719999313354492
1773230422482110500,6.1001103515625,-207.1199951171875,-112.68000030517578,-9.779999732971191
1773230422498132000,6.116132080078125,-207.59999084472656,-112.55999755859375,-9.65999984741211
1773230422514123000,6.132123046875,-207.47999572753906,-112.43999481201172,-9.779999732971191
1773230422530113300,6.14811328125,-207.4199981689453,-113.15999603271484,-9.779999732971191
1773230422546105000,6.16410498046875,-208.55999755859375,-113.22000122070312,-9.420000076293945
1773230422562126800,6.180126953125,-208.79998779296875,-112.79999542236328,-9.779999732971191
1773230422578116000,6.1961162109375,-207.95999145507812,-113.0999984741211,-9.539999961853027
1773230422594109000,6.21210888671875,-208.13999938964844,-113.22000122070312,-9.539999961853027
1773230422610130700,6.228130615234375,-209.1599884033203,-112.73999786376953,-10.380000114440918
1773230422626121200,6.244121337890625,-208.1999969482422,-112.55999755859375,-10.800000190734863
1773230422642111700,6.26011181640625,-207.89999389648438,-112.68000030517578,-10.5
1773230422658135600,6.276135498046875,-208.0800018310547,-112.55999755859375,-9.84000015258789
1773230422674126800,6.292126953125,-208.0800018310547,-112.68000030517578,-9.539999961853027
1773230422690116900,6.308116943359375,-207.95999145507812,-113.39999389648438,-9.359999656677246
1773230422706108700,6.324108642578125,-207.83999633789062,-113.15999603271484,-9.65999984741211
1773230422722129200,6.340129150390625,-208.13999938964844,-112.6199951171875,-9.84000015258789
1773230422738119400,6.356119384765625,-208.13999938964844,-112.0199966430664,-9.719999313354492
1773230422754113000,6.372113037109375,-208.25999450683594,-112.55999755859375,-9.960000038146973
1773230422770103300,6.388103271484375,-208.0800018310547,-112.91999816894531,-9.779999732971191
1773230422786125800,6.404125732421875,-207.77999877929688,-112.79999542236328,-10.139999389648438
1773230422802116900,6.420116943359375,-208.25999450683594,-113.33999633789062,-11.039999961853027
1773230422818108200,6.436108154296875,-208.5,-112.55999755859375,-10.859999656677246
1773230422834129400,6.45212939453125,-207.72000122070312,-112.37999725341797,-10.380000114440918
1773230422850120000,6.468119873046875,-207.77999877929688,-112.73999786376953,-10.619999885559082
1773230422866111700,6.48411181640625,-207.239990234375,-112.86000061035156,-11.15999984741211
1773230422882134500,6.500134521484375,-207.17999267578125,-111.95999908447266,-10.380000114440918
1773230422898125300,6.516125244140625,-207.6599884033203,-111.83999633789062,-10.139999389648438
1773230422914116400,6.532116455078125,-207.95999145507812,-113.15999603271484,-10.199999809265137
1773230422930107000,6.54810693359375,-208.0800018310547,-113.15999603271484,-9.539999961853027
1773230422946126300,6.564126220703125,-207.4199981689453,-113.27999877929688,-9.719999313354492
1773230422962119000,6.580118896484375,-207.77999877929688,-112.86000061035156,-10.739999771118164
1773230422978110200,6.596110107421875,-208.37998962402344,-112.37999725341797,-10.920000076293945
1773230422994133500,6.612133544921875,-208.13999938964844,-112.68000030517578,-10.319999694824219
1773230423010123800,6.628123779296875,-208.3199920654297,-112.97999572753906,-10.800000190734863
1773230423026115300,6.644115234375,-208.79998779296875,-112.79999542236328,-11.279999732971191
1773230423042104000,6.66010400390625,-208.6199951171875,-112.79999542236328,-9.899999618530273
1773230423058127400,6.67612744140625,-208.44000244140625,-113.69999694824219,-9.479999542236328
1773230423074120000,6.692119873046875,-208.55999755859375,-113.22000122070312,-9.84000015258789
1773230423090110500,6.7081103515625,-208.79998779296875,-112.25999450683594,-9.059999465942383
1773230423106132700,6.7241328125,-207.95999145507812,-112.37999725341797,-9.479999542236328
1773230423122122800,6.740122802734375,-207.5399932861328,-112.13999938964844,-10.859999656677246
1773230423138114800,6.75611474609375,-207.83999633789062,-111.65999603271484,-10.559999465942383
1773230423154107000,6.77210693359375,-207.72000122070312,-111.65999603271484,-9.300000190734863
1773230423170127600,6.788127685546875,-208.13999938964844,-111.65999603271484,-9.84000015258789
1773230423186119000,6.804118896484375,-208.1999969482422,-112.07999420166016,-10.260000228881836
1773230423202110000,6.82010986328125,-207.89999389648438,-112.55999755859375,-10.380000114440918
1773230423218132000,6.836132080078125,-208.37998962402344,-112.19999694824219,-10.199999809265137
1773230423234121000,6.852120849609375,-208.86000061035156,-112.07999420166016,-9.59999942779541
1773230423250114000,6.868114013671875,-208.44000244140625,-112.55999755859375,-9.899999618530273
1773230423266104800,6.884104736328125,-208.13999938964844,-112.73999786376953,-10.139999389648438
1773230423282126000,6.9001259765625,-208.1999969482422,-112.31999969482422,-10.559999465942383
1773230423298117000,6.9161171875,-208.1999969482422,-112.25999450683594,-10.380000114440918
1773230423314108200,6.932108154296875,-207.89999389648438,-112.07999420166016,-9.899999618530273
1773230423330131200,6.948131103515625,-207.72000122070312,-111.95999908447266,-9.960000038146973
1773230423346122000,6.9641220703125,-207.83999633789062,-112.07999420166016,-10.199999809265137
1773230423362112800,6.98011279296875,-208.13999938964844,-111.5999984741211,-9.719999313354492
1773230423378105600,6.996105712890625,-208.37998962402344,-111.77999877929688,-9.179999351501465
1773230423394123800,7.012123779296875,-208.01998901367188,-111.65999603271484,-9.479999542236328
1773230423410117000,7.0281171875,-208.01998901367188,-111.89999389648438,-9.779999732971191
1773230423426108200,7.044108154296875,-208.01998901367188,-112.73999786376953,-9.779999732971191
1773230423442130000,7.0601298828125,-208.13999938964844,-112.19999694824219,-9.960000038146973
1773230423466114800,7.08411474609375,-208.25999450683594,-111.47999572753906,-10.019999504089355
1773230423482108400,7.1001083984375,-208.0800018310547,-111.36000061035156,-10.079999923706055
1773230423498129000,7.11612890625,-208.25999450683594,-111.54000091552734,-10.380000114440918
1773230423514119700,7.13211962890625,-208.25999450683594,-111.83999633789062,-10.739999771118164
1773230423530113500,7.148113525390625,-208.44000244140625,-111.89999389648438,-10.380000114440918
1773230423546103800,7.164103759765625,-208.3199920654297,-112.07999420166016,-10.199999809265137
1773230423562125000,7.180125,-208.3199920654297,-111.89999389648438,-10.4399995803833
1773230423578116600,7.19611669921875,-208.1999969482422,-111.5999984741211,-10.4399995803833
1773230423594107000,7.21210693359375,-208.1999969482422,-111.83999633789062,-10.079999923706055
1773230423610128600,7.228128662109375,-208.6199951171875,-111.95999908447266,-9.779999732971191
1773230423626119000,7.244118896484375,-207.6599884033203,-111.95999908447266,-9.539999961853027
1773230423642111000,7.260111083984375,-207.89999389648438,-112.0199966430664,-9.479999542236328
1773230423658133000,7.276133056640625,-208.6199951171875,-113.04000091552734,-9.84000015258789
1773230423674123300,7.292123291015625,-208.44000244140625,-112.68000030517578,-9.779999732971191
1773230423690115600,7.308115478515625,-208.3199920654297,-111.5999984741211,-9.300000190734863
1773230423706108000,7.32410791015625,-208.13999938964844,-111.5999984741211,-9
1773230423722127600,7.340127685546875,-208.5,-111.72000122070312,-9.300000190734863
1773230423738119200,7.356119140625,-208.86000061035156,-111.89999389648438,-9.359999656677246
1773230423754112000,7.372112060546875,-208.6199951171875,-112.07999420166016,-9.300000190734863
1773230423770132200,7.38813232421875,-208.37998962402344,-112.19999694824219,-9.119999885559082
1773230423786123800,7.404123779296875,-208.1999969482422,-112.0199966430664,-8.819999694824219
1773230423802115800,7.42011572265625,-208.13999938964844,-112.0199966430664,-8.819999694824219
1773230423818107000,7.43610693359375,-207.95999145507812,-111.95999908447266,-9.179999351501465
1773230423834126000,7.4521259765625,-207.83999633789062,-111.72000122070312,-9.59999942779541
1773230423850119700,7.46811962890625,-208.37998962402344,-111.72000122070312,-9.960000038146973
1773230423866110500,7.4841103515625,-208.1999969482422,-112.13999938964844,-10.380000114440918
1773230423882132000,7.500132080078125,-207.89999389648438,-112.19999694824219,-10.319999694824219
1773230423898122200,7.516122314453125,-208.5,-112.19999694824219,-9.479999542236328
1773230423914113800,7.53211376953125,-208.44000244140625,-112.37999725341797,-9.539999961853027
1773230423930106400,7.5481064453125,-207.83999633789062,-111.83999633789062,-9.899999618530273
1773230423946126600,7.564126708984375,-207.72000122070312,-111.65999603271484,-9.300000190734863
1773230423962119000,7.580118896484375,-208.3199920654297,-112.13999938964844,-9.420000076293945
1773230423978110500,7.5961103515625,-208.9199981689453,-112.37999725341797,-10.079999923706055
1773230423994130700,7.612130615234375,-209.09999084472656,-111.89999389648438,-9.65999984741211
1773230424010122800,7.628122802734375,-208.9199981689453,-111.5999984741211,-9.420000076293945
1773230424026113800,7.64411376953125,-208.13999938964844,-112.0199966430664,-9.899999618530273
1773230424042104800,7.660104736328125,-208.01998901367188,-112.31999969482422,-10.139999389648438
1773230424058127000,7.676127197265625,-208.01998901367188,-112.13999938964844,-9.899999618530273
1773230424074116400,7.692116455078125,-207.83999633789062,-111.5999984741211,-9.479999542236328
1773230424090108400,7.7081083984375,-208.55999755859375,-111.72000122070312,-9.239999771118164
1773230424106129200,7.724129150390625,-208.67999267578125,-112.13999938964844,-9.479999542236328
1773230424122121700,7.740121826171875,-208.44000244140625,-112.5,-9.899999618530273
1773230424138113300,7.75611328125,-208.01998901367188,-112.91999816894531,-10.260000228881836
1773230424154104600,7.7721044921875,-207.72000122070312,-112.68000030517578,-9.84000015258789
1773230424170125800,7.788125732421875,-208.0800018310547,-112.43999481201172,-9.239999771118164
1773230424186115300,7.804115234375,-207.83999633789062,-112.37999725341797,-9.359999656677246
1773230424202107000,7.82010693359375,-207.47999572753906,-112.0199966430664,-9.239999771118164
1773230424218131000,7.836130859375,-208.01998901367188,-112.0199966430664,-10.380000114440918
1773230424234120200,7.8521201171875,-208.5,-112.91999816894531,-11.219999313354492
1773230424250112000,7.868112060546875,-208.79998779296875,-112.55999755859375,-9.719999313354492
1773230424266103300,7.884103271484375,-208.55999755859375,-112.0199966430664,-8.519999504089355
1773230424282125000,7.900125,-208.739990234375,-112.68000030517578,-9.119999885559082
1773230424298115600,7.916115478515625,-208.86000061035156,-112.31999969482422,-9.359999656677246
1773230424314108200,7.932108154296875,-208.25999450683594,-111.89999389648438,-9.359999656677246
1773230424330129200,7.948129150390625,-208.6199951171875,-111.89999389648438,-9.65999984741211
1773230424346120400,7.964120361328125,-208.9199981689453,-112.0199966430664,-9.359999656677246
1773230424362110500,7.9801103515625,-208.9199981689453,-112.13999938964844,-10.139999389648438
1773230424378102800,7.996102783203125,-208.37998962402344,-112.07999420166016,-10.739999771118164
1773230424394123300,8.012123291015625,-207.83999633789062,-111.54000091552734,-9.719999313354492
1773230424410115600,8.028115478515625,-208.55999755859375,-111.41999816894531,-9.719999313354492
1773230424426104600,8.0441044921875,-208.739990234375,-112.0199966430664,-10.019999504089355
1773230424442129200,8.060129150390624,-208.44000244140625,-112.0199966430664,-9.119999885559082
1773230424458118400,8.076118408203126,-207.47999572753906,-111.89999389648438,-9
1773230424474110200,8.092110107421876,-206.75999450683594,-112.55999755859375,-8.819999694824219
1773230424490102500,8.1081025390625,-208.0800018310547,-112.73999786376953,-8.819999694824219
1773230424506124000,8.1241240234375,-208.3199920654297,-112.07999420166016,-9.479999542236328
1773230424522115600,8.140115478515625,-207.59999084472656,-112.19999694824219,-9.899999618530273
1773230424538105900,8.15610595703125,-207.89999389648438,-111.47999572753906,-9.539999961853027
1773230424554128600,8.172128662109374,-208.86000061035156,-111.54000091552734,-9.059999465942383
1773230424570119000,8.188118896484376,-208.86000061035156,-112.43999481201172,-9
1773230424586110500,8.2041103515625,-208.67999267578125,-112.5,-9.059999465942383
1773230424602102000,8.22010205078125,-209.1599884033203,-112.31999969482422,-9.300000190734863
1773230424618122200,8.236122314453125,-208.5,-111.83999633789062,-9.59999942779541
1773230424634113800,8.25211376953125,-208.13999938964844,-111.83999633789062,-10.139999389648438
1773230424650104300,8.268104248046875,-208.37998962402344,-111.72000122070312,-9.65999984741211
1773230424666124300,8.284124267578125,-208.13999938964844,-111.47999572753906,-9.420000076293945
1773230424682116400,8.300116455078125,-207.89999389648438,-111.54000091552734,-10.260000228881836
1773230424698109200,8.316109130859376,-207.6599884033203,-112.19999694824219,-9.899999618530273
1773230424714099700,8.332099609375,-208.0800018310547,-112.55999755859375,-9.960000038146973
1773230424730122800,8.348122802734375,-208.67999267578125,-112.37999725341797,-9.960000038146973
1773230424746114000,8.364114013671875,-208.67999267578125,-112.91999816894531,-9.059999465942383
1773230424762104300,8.380104248046875,-208.6199951171875,-112.6199951171875,-9.059999465942383
1773230424778125800,8.396125732421876,-208.44000244140625,-112.79999542236328,-9.59999942779541
1773230424794116600,8.41211669921875,-208.3199920654297,-112.6199951171875,-9.779999732971191
1773230424810109000,8.42810888671875,-208.67999267578125,-112.13999938964844,-10.260000228881836
1773230424826131000,8.444130859375,-208.86000061035156,-112.97999572753906,-10.380000114440918
1773230424842121200,8.460121337890625,-208.0800018310547,-112.43999481201172,-10.079999923706055
1773230424858113300,8.47611328125,-207.83999633789062,-111.36000061035156,-9.65999984741211
1773230424874103300,8.492103271484375,-208.25999450683594,-111.41999816894531,-9.539999961853027
1773230424890125300,8.508125244140626,-208.67999267578125,-111.65999603271484,-10.139999389648438
1773230424906114800,8.52411474609375,-208.3199920654297,-111.65999603271484,-10.019999504089355
1773230424922108200,8.540108154296876,-207.89999389648438,-111.72000122070312,-9.899999618530273
1773230424938129400,8.55612939453125,-208.37998962402344,-112.37999725341797,-10.079999923706055
1773230424954119400,8.572119384765625,-208.5,-112.5,-10.079999923706055
1773230424970111500,8.588111572265625,-208.55999755859375,-112.37999725341797,-9.779999732971191
1773230424986104300,8.604104248046875,-208.37998962402344,-111.77999877929688,-9.719999313354492
1773230425002124500,8.62012451171875,-208.1999969482422,-111.89999389648438,-9.899999618530273
1773230425018116400,8.636116455078126,-208.6199951171875,-112.73999786376953,-9.960000038146973
1773230425034106600,8.652106689453126,-208.01998901367188,-112.13999938964844,-9.779999732971191
1773230425050129200,8.668129150390625,-208.0800018310547,-111.72000122070312,-9.119999885559082
1773230425066120400,8.684120361328125,-208.67999267578125,-111.95999908447266,-9.119999885559082
1773230425082112000,8.700112060546875,-208.1999969482422,-112.37999725341797,-9.300000190734863
1773230425098102300,8.716102294921875,-207.36000061035156,-112.31999969482422,-8.639999389648438
1773230425114124500,8.73212451171875,-207,-111.95999908447266,-9
1773230425130115300,8.748115234375,-207.83999633789062,-111.89999389648438,-9.84000015258789
1773230425146105600,8.764105712890625,-208.0800018310547,-111.54000091552734,-9.779999732971191
1773230425162128600,8.780128662109375,-208.3199920654297,-111.41999816894531,-10.260000228881836
1773230425178119700,8.79611962890625,-208.97999572753906,-111.41999816894531,-10.4399995803833
1773230425194111700,8.81211181640625,-208.9199981689453,-111.18000030517578,-10.139999389648438
1773230425210101200,8.828101318359375,-208.37998962402344,-111.54000091552734,-9.539999961853027
1773230425226124000,8.8441240234375,-208.37998962402344,-111.89999389648438,-9
1773230425242114000,8.860114013671875,-209.0399932861328,-111.05999755859375,-9.059999465942383
1773230425258105000,8.87610498046875,-208.55999755859375,-110.75999450683594,-9.779999732971191
1773230425274128100,8.892128173828125,-207.89999389648438,-111.1199951171875,-10.4399995803833
1773230425290119400,8.908119384765625,-207.72000122070312,-111.47999572753906,-9.779999732971191
1773230425306110000,8.92410986328125,-207.83999633789062,-111.89999389648438,-9.179999351501465
1773230425322101800,8.940101806640625,-208.37998962402344,-112.0199966430664,-9.359999656677246
1773230425338122500,8.95612255859375,-208.25999450683594,-111.65999603271484,-9.119999885559082
1773230425354114000,8.972114013671876,-208.0800018310547,-111.54000091552734,-9.59999942779541
1773230425370106400,8.9881064453125,-208.5,-111.72000122070312,-9.59999942779541
1773230425386124300,9.004124267578124,-208.5,-111.47999572753906,-8.699999809265137
1773230425402118400,9.020118408203125,-208.3199920654297,-111.72000122070312,-9.239999771118164
1773230425418108200,9.036108154296874,-207.83999633789062,-111.5999984741211,-9.300000190734863
1773230425434098400,9.052098388671874,-207.36000061035156,-111.47999572753906,-8.9399995803833
1773230425450122500,9.06812255859375,-207.6599884033203,-112.07999420166016,-9.420000076293945
1773230425466110700,9.08411083984375,-207.83999633789062,-111.54000091552734,-9.779999732971191
1773230425482103600,9.100103515625,-207.6599884033203,-110.75999450683594,-9.539999961853027
1773230425498125600,9.11612548828125,-207.59999084472656,-111.36000061035156,-9.059999465942383
1773230425514116600,9.13211669921875,-207.36000061035156,-111.05999755859375,-9
1773230425530108200,9.148108154296875,-207.47999572753906,-110.87999725341797,-9.479999542236328
1773230425546100000,9.164099853515625,-208.1999969482422,-111.36000061035156,-9.420000076293945
1773230425562121500,9.18012158203125,-208.13999938964844,-111.41999816894531,-9.179999351501465
1773230425578112300,9.1961123046875,-208.37998962402344,-111.77999877929688,-8.9399995803833
1773230425594104800,9.212104736328126,-208.37998962402344,-111.23999786376953,-8.519999504089355
1773230425610126000,9.2281259765625,-208.6199951171875,-110.93999481201172,-8.760000228881836
1773230425626117000,9.2441171875,-208.86000061035156,-111.1199951171875,-9
1773230425642107400,9.260107421875,-208.01998901367188,-111.29999542236328,-8.460000038146973
1773230425658130000,9.2761298828125,-207.77999877929688,-111.18000030517578,-8.519999504089355
1773230425674120700,9.29212060546875,-208.01998901367188,-110.69999694824219,-9
1773230425690113000,9.308113037109376,-207.95999145507812,-110.75999450683594,-8.880000114440918
1773230425706103300,9.324103271484375,-207.72000122070312,-110.69999694824219,-9.179999351501465
1773230425722125600,9.34012548828125,-208.13999938964844,-111.1199951171875,-8.760000228881836
1773230425738115600,9.356115478515624,-208.739990234375,-111.1199951171875,-8.039999961853027
1773230425754105900,9.37210595703125,-208.44000244140625,-111.18000030517578,-7.799999713897705
1773230425770129000,9.38812890625,-208.25999450683594,-111,-7.739999771118164
1773230425786121200,9.404121337890626,-208.13999938964844,-110.75999450683594,-8.15999984741211
1773230425802112300,9.4201123046875,-207.36000061035156,-111.65999603271484,-8.460000038146973
1773230425818102500,9.4361025390625,-207.36000061035156,-111.05999755859375,-8.519999504089355
1773230425834123500,9.45212353515625,-208.3199920654297,-110.15999603271484,-8.220000267028809
1773230425850116000,9.4681162109375,-208.37998962402344,-110.5199966430664,-8.519999504089355
1773230425866107000,9.48410693359375,-208.13999938964844,-110.81999969482422,-8.819999694824219
1773230425882097200,9.50009716796875,-208.37998962402344,-110.5199966430664,-8.699999809265137
1773230425898120700,9.51612060546875,-208.55999755859375,-110.57999420166016,-8.460000038146973
1773230425914111000,9.532111083984375,-208.13999938964844,-111.1199951171875,-8.15999984741211
1773230425930102000,9.54810205078125,-207.47999572753906,-111,-8.220000267028809
1773230425946123000,9.564123046875,-207.05999755859375,-111,-8.699999809265137
1773230425962114600,9.580114501953124,-207.17999267578125,-110.45999908447266,-8.760000228881836
1773230425978105000,9.59610498046875,-207.89999389648438,-110.45999908447266,-8.15999984741211
1773230425994098400,9.612098388671875,-207.59999084472656,-111.18000030517578,-8.460000038146973
1773230426010119200,9.628119140625,-206.87998962402344,-110.69999694824219,-8.9399995803833
1773230426026111500,9.644111572265626,-207.89999389648438,-110.81999969482422,-8.9399995803833
1773230426042100700,9.660100830078125,-208.6199951171875,-111.41999816894531,-8.819999694824219
1773230426058123800,9.676123779296875,-207.89999389648438,-112.07999420166016,-9
1773230426074112000,9.692112060546876,-208.01998901367188,-112.43999481201172,-8.279999732971191
1773230426090105000,9.70810498046875,-208.1999969482422,-111.65999603271484,-8.15999984741211
1773230426106127600,9.724127685546875,-207.6599884033203,-111.23999786376953,-8.760000228881836
1773230426122118000,9.740117919921875,-207.6599884033203,-111.41999816894531,-8.699999809265137
1773230426138110500,9.7561103515625,-207.59999084472656,-111.47999572753906,-8.819999694824219
1773230426154100000,9.772099853515625,-207.59999084472656,-112.55999755859375,-8.699999809265137
1773230426170122000,9.7881220703125,-207.89999389648438,-111.95999908447266,-8.9399995803833
1773230426186113000,9.804113037109374,-208.3199920654297,-110.81999969482422,-8.880000114440918
1773230426202103800,9.820103759765624,-208.86000061035156,-111.18000030517578,-8.15999984741211
1773230426218126600,9.836126708984375,-208.5,-111.29999542236328,-8.34000015258789
1773230426234116400,9.852116455078125,-207.77999877929688,-111.54000091552734,-8.460000038146973
1773230426250109400,9.868109375,-207.95999145507812,-111.18000030517578,-7.739999771118164
1773230426266099200,9.88409912109375,-208.01998901367188,-111.54000091552734,-7.739999771118164
1773230426282122200,9.900122314453125,-207.72000122070312,-111.5999984741211,-7.919999599456787
1773230426298111700,9.91611181640625,-207.72000122070312,-111.54000091552734,-7.739999771118164
1773230426314104600,9.9321044921875,-207.89999389648438,-111.72000122070312,-7.619999885559082
1773230426330094800,9.9480947265625,-208.739990234375,-111.36000061035156,-7.799999713897705
1773230426346116000,9.9641162109375,-209.1599884033203,-111,-7.799999713897705
1773230426362108200,9.980108154296875,-208.5,-111.36000061035156,-7.319999694824219
1773230426378099700,9.996099609375,-208.1999969482422,-111.95999908447266,-7.559999942779541
1773230426394121500,10.01212158203125,-207.6599884033203,-111.72000122070312,-7.980000019073486
1773230426410110500,10.0281103515625,-207.05999755859375,-112.13999938964844,-7.440000057220459
1773230426426104000,10.04410400390625,-207.47999572753906,-112.43999481201172,-7.679999828338623
1773230426442125600,10.06012548828125,-207.29998779296875,-111.95999908447266,-8.09999942779541
1773230426458116400,10.076116455078125,-207.05999755859375,-112.07999420166016,-7.919999599456787
1773230426474107000,10.09210693359375,-207.5399932861328,-112.25999450683594,-7.859999656677246
1773230426490098700,10.1080986328125,-207.89999389648438,-112.07999420166016,-8.09999942779541
1773230426506119700,10.12411962890625,-207.83999633789062,-111.83999633789062,-7.859999656677246
1773230426522111500,10.140111572265624,-207.83999633789062,-112.0199966430664,-8.09999942779541
1773230426538101800,10.156101806640624,-207.89999389648438,-112.25999450683594,-8.279999732971191
1773230426554125300,10.172125244140625,-207.5399932861328,-112.31999969482422,-7.5
1773230426570116000,10.1881162109375,-207.6599884033203,-112.6199951171875,-7.859999656677246
1773230426586105900,10.20410595703125,-207.36000061035156,-112.0199966430664,-8.220000267028809
1773230426602096400,10.220096435546875,-207,-111,-7.739999771118164
1773230426618120000,10.236119873046874,-207.47999572753906,-110.93999481201172,-7.859999656677246
1773230426634111200,10.252111328125,-207.4199981689453,-111.65999603271484,-8.34000015258789
1773230426650101800,10.268101806640624,-206.63999938964844,-111.72000122070312,-7.859999656677246
1773230426666121200,10.284121337890625,-206.8199920654297,-111.18000030517578,-7.319999694824219
1773230426682114000,10.300114013671875,-206.6999969482422,-111.36000061035156,-7.679999828338623
1773230426698105000,10.31610498046875,-206.87998962402344,-111.5999984741211,-7.679999828338623
1773230426714096400,10.332096435546875,-207.59999084472656,-111.89999389648438,-7.259999752044678
1773230426730116600,10.34811669921875,-207.17999267578125,-112.86000061035156,-7.859999656677246
1773230426746110700,10.36411083984375,-206.6999969482422,-113.45999908447266,-8.039999961853027
1773230426762101200,10.380101318359374,-207.36000061035156,-113.27999877929688,-7.859999656677246
1773230426778123300,10.396123291015625,-207.1199951171875,-112.43999481201172,-8.34000015258789
1773230426794114000,10.412114013671875,-206.51998901367188,-112.25999450683594,-8.579999923706055
1773230426810105900,10.42810595703125,-207.239990234375,-112.13999938964844,-8.819999694824219
1773230426826096000,10.44409619140625,-207.5399932861328,-112.25999450683594,-8.460000038146973
1773230426842117000,10.4601171875,-207.47999572753906,-112.37999725341797,-7.859999656677246
1773230426858109200,10.476109130859374,-207.89999389648438,-112.43999481201172,-7.980000019073486
1773230426874099700,10.492099609375,-208.0800018310547,-112.86000061035156,-7.5
1773230426890122500,10.50812255859375,-207.83999633789062,-112.68000030517578,-7.5
1773230426906113000,10.524113037109375,-207.59999084472656,-112.68000030517578,-8.34000015258789
1773230426922103600,10.540103515625,-208.01998901367188,-112.97999572753906,-7.919999599456787
1773230426938126600,10.556126708984374,-208.3199920654297,-112.6199951171875,-7.37999963760376
1773230426954118000,10.572117919921874,-207.77999877929688,-112.37999725341797,-7.919999599456787
1773230426970107400,10.588107421875,-207.72000122070312,-112.5,-8.220000267028809
1773230426986098000,10.604097900390625,-207.59999084472656,-112.13999938964844,-7.980000019073486
1773230427002121000,10.620120849609375,-207.29998779296875,-112.07999420166016,-7.139999866485596
1773230427018113000,10.636113037109375,-207.1199951171875,-112.07999420166016,-7.199999809265137
1773230427034103000,10.65210302734375,-207.17999267578125,-111.65999603271484,-7.679999828338623
1773230427050095400,10.668095458984375,-206.75999450683594,-111.83999633789062,-7.37999963760376
1773230427066118000,10.684117919921874,-206.8199920654297,-112.13999938964844,-7.37999963760376
1773230427082108000,10.70010791015625,-207.1199951171875,-111.95999908447266,-7.799999713897705
1773230427098099500,10.716099365234374,-206.33999633789062,-112.19999694824219,-8.399999618530273
1773230427114120400,10.732120361328125,-206.39999389648438,-112.25999450683594,-8.519999504089355
1773230427130112300,10.7481123046875,-207.47999572753906,-112.13999938964844,-8.09999942779541
1773230427146103000,10.76410302734375,-207.6599884033203,-112.37999725341797,-7.559999942779541
1773230427162125300,10.780125244140624,-207.6599884033203,-112.5,-7.679999828338623
1773230427178115300,10.796115234375,-207.17999267578125,-111.83999633789062,-7.440000057220459
1773230427194105300,10.812105224609375,-206.94000244140625,-111.41999816894531,-6.960000038146973
1773230427210099200,10.82809912109375,-207.83999633789062,-111.54000091552734,-7.440000057220459
1773230427226121500,10.84412158203125,-207.59999084472656,-112.0199966430664,-7.559999942779541
1773230427242111000,10.860111083984375,-207.5399932861328,-113.22000122070312,-7.679999828338623
1773230427258102500,10.8761025390625,-208.0800018310547,-112.97999572753906,-7.980000019073486
1773230427274125300,10.892125244140624,-207.77999877929688,-112.0199966430664,-7.980000019073486
1773230427290116400,10.908116455078124,-207.36000061035156,-112.37999725341797,-7.739999771118164
1773230427306105900,10.92410595703125,-207.77999877929688,-112.37999725341797,-7.559999942779541
1773230427322095900,10.940095947265625,-208.44000244140625,-112.19999694824219,-7.980000019073486
1773230427338117000,10.9561171875,-208.44000244140625,-112.43999481201172,-7.679999828338623
1773230427354110200,10.972110107421875,-207.72000122070312,-112.37999725341797,-7.799999713897705
1773230427370101800,10.988101806640625,-207.29998779296875,-112.13999938964844,-8.09999942779541
1773230427386124000,11.0041240234375,-207.59999084472656,-111.72000122070312,-7.619999885559082
1773230427402114000,11.020114013671876,-207.77999877929688,-112.25999450683594,-7.859999656677246
1773230427418106400,11.0361064453125,-207.239990234375,-112.5,-8.220000267028809
1773230427434097700,11.05209765625,-207.4199981689453,-112.07999420166016,-7.919999599456787
1773230427450119200,11.068119140625,-207.4199981689453,-111.89999389648438,-7.440000057220459
1773230427466110500,11.0841103515625,-207.239990234375,-111.89999389648438,-7.319999694824219
1773230427482099200,11.10009912109375,-207.83999633789062,-110.93999481201172,-6.899999618530273
1773230427498135000,11.116135009765625,-207.59999084472656,-110.63999938964844,-7.259999752044678
1773230427514127400,11.13212744140625,-207.59999084472656,-111.5999984741211,-7.139999866485596
1773230427530117000,11.1481171875,-207.83999633789062,-112.0199966430664,-6.420000076293945
1773230427546109400,11.164109375,-207.59999084472656,-112.07999420166016,-6.899999618530273
1773230427562129700,11.180129638671875,-207.77999877929688,-111.77999877929688,-7.199999809265137
1773230427578119700,11.19611962890625,-208.13999938964844,-111.5999984741211,-7.259999752044678
1773230427594112800,11.21211279296875,-207.59999084472656,-111.5999984741211,-7.440000057220459
1773230427610134500,11.228134521484375,-206.8199920654297,-112.07999420166016,-7.319999694824219
1773230427626125000,11.244125,-206.87998962402344,-111.47999572753906,-7.259999752044678
1773230427642115800,11.26011572265625,-207.5399932861328,-110.93999481201172,-7.079999923706055
1773230427658138000,11.27613818359375,-208.13999938964844,-111.29999542236328,-6.71999979019165
1773230427674130200,11.292130126953126,-208.6199951171875,-111.41999816894531,-7.259999752044678
1773230427690118400,11.308118408203125,-208.55999755859375,-112.19999694824219,-7.619999885559082
1773230427706110700,11.32411083984375,-208.6199951171875,-112.37999725341797,-7.679999828338623
1773230427722134800,11.340134765625,-208.86000061035156,-111.89999389648438,-8.399999618530273
1773230427738125000,11.356125,-208.86000061035156,-111.29999542236328,-7.5
1773230427754114000,11.372114013671874,-208.6199951171875,-110.87999725341797,-7.319999694824219
1773230427770107100,11.388107177734375,-208.13999938964844,-110.87999725341797,-7.5
1773230427786128400,11.40412841796875,-208.67999267578125,-110.22000122070312,-7.139999866485596
1773230427802119200,11.420119140625,-209.33999633789062,-109.86000061035156,-7.139999866485596
1773230427818112300,11.4361123046875,-208.9199981689453,-110.27999877929688,-6.179999828338623
1773230427834133800,11.4521337890625,-208.44000244140625,-111.1199951171875,-6.359999656677246
1773230427850123500,11.46812353515625,-208.13999938964844,-110.75999450683594,-7.37999963760376
1773230427866115600,11.484115478515625,-208.37998962402344,-110.27999877929688,-7.559999942779541
1773230427882136800,11.50013671875,-208.9199981689453,-110.75999450683594,-7.559999942779541
1773230427898128600,11.516128662109375,-208.25999450683594,-110.87999725341797,-6.71999979019165
1773230427914119700,11.53211962890625,-207.83999633789062,-111.47999572753906,-6.059999942779541
1773230427930111500,11.548111572265626,-208.0800018310547,-111.1199951171875,-6.299999713897705
1773230427946132700,11.5641328125,-208.25999450683594,-110.93999481201172,-6.779999732971191
1773230427962122800,11.580122802734374,-208.739990234375,-111.1199951171875,-7.319999694824219
1773230427978114600,11.596114501953124,-208.79998779296875,-110.93999481201172,-7.739999771118164
1773230427994135000,11.612135009765625,-208.86000061035156,-111.18000030517578,-8.09999942779541
1773230428010128100,11.628128173828125,-209.0399932861328,-110.63999938964844,-8.09999942779541
1773230428026119000,11.644118896484375,-208.86000061035156,-110.93999481201172,-7.559999942779541
1773230428042110000,11.66010986328125,-208.25999450683594,-111.36000061035156,-7.139999866485596
1773230428058132500,11.676132568359375,-208.6199951171875,-110.81999969482422,-7.5
1773230428074122200,11.692122314453124,-208.9199981689453,-110.93999481201172,-7.319999694824219
1773230428090114300,11.7081142578125,-208.55999755859375,-110.22000122070312,-7.019999980926514
1773230428106136600,11.724136474609375,-209.09999084472656,-110.22000122070312,-7.019999980926514
1773230428122124300,11.740124267578125,-209.33999633789062,-111,-6.839999675750732
1773230428138118100,11.7561181640625,-208.86000061035156,-110.81999969482422,-7.019999980926514
1773230428154108200,11.772108154296875,-208.3199920654297,-110.69999694824219,-6.359999656677246
1773230428170130200,11.788130126953124,-207.89999389648438,-110.15999603271484,-6.359999656677246
1773230428186122500,11.80412255859375,-208.44000244140625,-110.33999633789062,-6.779999732971191
1773230428202113500,11.820113525390624,-208.5,-110.63999938964844,-6.659999847412109
1773230428218135000,11.836135009765625,-207.83999633789062,-110.69999694824219,-7.319999694824219
1773230428234125600,11.85212548828125,-208.0800018310547,-111.23999786376953,-7.139999866485596
1773230428250117600,11.86811767578125,-208.25999450683594,-110.69999694824219,-6.359999656677246
1773230428266109700,11.884109619140625,-208.55999755859375,-110.87999725341797,-6.539999961853027
1773230428282130400,11.90013037109375,-209.09999084472656,-111,-6.779999732971191
1773230428298119200,11.916119140625,-209.0399932861328,-110.45999908447266,-6.599999904632568
1773230428314112000,11.932112060546874,-208.739990234375,-110.87999725341797,-6.779999732971191
1773230428330135800,11.9481357421875,-208.3199920654297,-110.93999481201172,-7.559999942779541
1773230428346125600,11.96412548828125,-208.1999969482422,-110.93999481201172,-7.619999885559082
1773230428362117000,11.9801171875,-208.9199981689453,-111.18000030517578,-7.139999866485596
1773230428378108200,11.996108154296875,-208.9199981689453,-111.36000061035156,-7.139999866485596
1773230428394128600,12.012128662109374,-207.89999389648438,-110.93999481201172,-6.899999618530273
1773230428410121000,12.028120849609374,-207.89999389648438,-110.45999908447266,-6.839999675750732
1773230428426111000,12.044111083984374,-208.6199951171875,-110.22000122070312,-7.319999694824219
1773230428442134500,12.060134521484375,-208.739990234375,-110.63999938964844,-7.319999694824219
1773230428458124300,12.076124267578125,-208.37998962402344,-111.29999542236328,-6.539999961853027
1773230428474116600,12.09211669921875,-208.67999267578125,-111.23999786376953,-6.599999904632568
1773230428490108200,12.108108154296875,-209.09999084472656,-110.87999725341797,-6.599999904632568
1773230428506128400,12.12412841796875,-208.44000244140625,-110.33999633789062,-7.019999980926514
1773230428522121000,12.140120849609374,-208.3199920654297,-110.5199966430664,-7.619999885559082
1773230428538113000,12.156113037109375,-208.739990234375,-111.1199951171875,-7.079999923706055
1773230428554132500,12.172132568359375,-208.5,-110.69999694824219,-7.139999866485596
1773230428570123800,12.188123779296875,-208.5,-110.75999450683594,-7.259999752044678
1773230428586115800,12.20411572265625,-208.44000244140625,-110.87999725341797,-6.960000038146973
1773230428602107600,12.220107666015625,-208.79998779296875,-111.18000030517578,-7.37999963760376
1773230428618128600,12.236128662109374,-209.1599884033203,-111.18000030517578,-7.619999885559082
1773230428634116900,12.252116943359376,-208.9199981689453,-110.57999420166016,-7.019999980926514
1773230428650111000,12.268111083984374,-208.6199951171875,-110.0999984741211,-7.259999752044678
1773230428666132200,12.28413232421875,-208.79998779296875,-110.45999908447266,-7.559999942779541
1773230428682122800,12.300122802734375,-209.27999877929688,-110.75999450683594,-6.960000038146973
1773230428698115300,12.316115234375,-209.09999084472656,-110.81999969482422,-6.899999618530273
1773230428714104800,12.332104736328125,-208.44000244140625,-110.93999481201172,-7.739999771118164
1773230428730128000,12.3481279296875,-208.25999450683594,-110.04000091552734,-7.259999752044678
1773230428746118400,12.364118408203124,-208.55999755859375,-110.0999984741211,-6.659999847412109
1773230428762109700,12.380109619140624,-208.44000244140625,-110.63999938964844,-6.839999675750732
1773230428778131000,12.396130859375,-208.01998901367188,-110.75999450683594,-7.139999866485596
1773230428794120400,12.412120361328125,-208.37998962402344,-110.81999969482422,-7.199999809265137
1773230428810113000,12.428113037109375,-208.79998779296875,-111,-6.659999847412109
1773230428826136300,12.44413623046875,-208.9199981689453,-111.65999603271484,-6.480000019073486
1773230428842128000,12.4601279296875,-208.6199951171875,-111.47999572753906,-6.179999828338623
1773230428858118400,12.476118408203124,-208.55999755859375,-110.81999969482422,-6.239999771118164
1773230428874108400,12.4921083984375,-209.1599884033203,-110.5199966430664,-7.199999809265137
1773230428890131700,12.508131591796875,-208.79998779296875,-110.57999420166016,-7.079999923706055
1773230428906121500,12.52412158203125,-208.67999267578125,-110.5199966430664,-6.71999979019165
1773230428922112300,12.5401123046875,-208.9199981689453,-110.04000091552734,-7.079999923706055
1773230428938136600,12.556136474609374,-208.67999267578125,-109.6199951171875,-6.659999847412109
1773230428954126800,12.572126953125,-208.0800018310547,-110.5199966430664,-7.079999923706055
1773230428970118400,12.588118408203124,-208.0800018310547,-111,-7.5
1773230428986106400,12.6041064453125,-209.22000122070312,-110.45999908447266,-6.599999904632568
1773230429002130000,12.6201298828125,-209.22000122070312,-110.39999389648438,-7.079999923706055
1773230429018121700,12.636121826171875,-208.3199920654297,-110.45999908447266,-7.799999713897705
1773230429034112500,12.652112548828125,-208.01998901367188,-110.87999725341797,-7.139999866485596
1773230429050135600,12.668135498046874,-208.0800018310547,-111,-6.839999675750732
1773230429066127000,12.684127197265624,-208.3199920654297,-110.81999969482422,-6.839999675750732
1773230429082117000,12.7001171875,-208.6199951171875,-110.22000122070312,-6.539999961853027
1773230429098107000,12.71610693359375,-208.79998779296875,-110.5199966430664,-6.899999618530273
1773230429114130200,12.732130126953125,-208.1999969482422,-111.65999603271484,-7.199999809265137
1773230429130121700,12.748121826171875,-207.83999633789062,-111.72000122070312,-6.779999732971191
1773230429146111200,12.764111328125,-208.1999969482422,-111.41999816894531,-6.899999618530273
1773230429162134800,12.780134765625,-208.13999938964844,-111.23999786376953,-7.319999694824219
1773230429178125000,12.796125,-208.79998779296875,-111.72000122070312,-7.37999963760376
1773230429194116600,12.81211669921875,-208.86000061035156,-111.54000091552734,-7.559999942779541
1773230429210108200,12.828108154296874,-208.6199951171875,-110.87999725341797,-7.079999923706055
1773230429226129200,12.844129150390625,-208.86000061035156,-111.1199951171875,-6.899999618530273
1773230429242121200,12.860121337890625,-208.55999755859375,-110.57999420166016,-7.259999752044678
1773230429258111700,12.87611181640625,-208.739990234375,-110.27999877929688,-6.839999675750732
1773230429274103300,12.892103271484375,-208.3199920654297,-110.75999450683594,-6.779999732971191
1773230429290125600,12.90812548828125,-207.83999633789062,-111.1199951171875,-7.5
1773230429306115800,12.92411572265625,-208.0800018310547,-111.05999755859375,-7.679999828338623
1773230429322107400,12.940107421875,-208.3199920654297,-110.93999481201172,-7.079999923706055
1773230429338128600,12.956128662109375,-208.55999755859375,-110.63999938964844,-6.960000038146973
1773230429354119000,12.972118896484375,-208.13999938964844,-110.45999908447266,-7.019999980926514
1773230429370111700,12.98811181640625,-208.55999755859375,-110.93999481201172,-6.659999847412109
1773230429386132500,13.004132568359376,-209.22000122070312,-111.65999603271484,-6.420000076293945
1773230429402123000,13.020123046875,-209.1599884033203,-111.41999816894531,-6.659999847412109
1773230429418113800,13.03611376953125,-209.22000122070312,-110.75999450683594,-6.659999847412109
1773230429434106600,13.052106689453124,-208.9199981689453,-110.75999450683594,-6.960000038146973
1773230429450128100,13.068128173828125,-208.1999969482422,-110.0999984741211,-7.139999866485596
1773230429466118400,13.084118408203125,-208.3199920654297,-109.86000061035156,-6.599999904632568
1773230429482109400,13.100109375,-208.9199981689453,-110.27999877929688,-6.599999904632568
1773230429498132000,13.116132080078126,-208.86000061035156,-110.75999450683594,-6.659999847412109
1773230429514014200,13.13201416015625,-208.6199951171875,-111.41999816894531,-7.559999942779541
1773230429530113500,13.148113525390626,-207.72000122070312,-111.83999633789062,-7.440000057220459
1773230429546106400,13.1641064453125,-207.5399932861328,-111.65999603271484,-7.259999752044678
1773230429562128000,13.1801279296875,-208.0800018310547,-110.87999725341797,-7.5
1773230429578119200,13.196119140625,-208.37998962402344,-110.69999694824219,-7.259999752044678
1773230429594108700,13.212108642578125,-208.86000061035156,-111,-8.039999961853027
1773230429610132000,13.228132080078124,-209.33999633789062,-111.23999786376953,-8.220000267028809
1773230429626121700,13.244121826171876,-209.09999084472656,-111.36000061035156,-7.440000057220459
1773230429642114000,13.260114013671876,-208.97999572753906,-110.63999938964844,-7.019999980926514
1773230429658104800,13.276104736328126,-208.79998779296875,-110.33999633789062,-7.679999828338623
1773230429674127600,13.292127685546875,-208.55999755859375,-111.18000030517578,-7.859999656677246
1773230429690118400,13.308118408203125,-208.0800018310547,-110.93999481201172,-7.739999771118164
1773230429706109400,13.324109375,-208.13999938964844,-110.39999389648438,-7.799999713897705
1773230429722131000,13.340130859375,-209.27999877929688,-110.63999938964844,-7.919999599456787
1773230429738123000,13.356123046875,-209.09999084472656,-110.81999969482422,-7.440000057220459
1773230429754113800,13.37211376953125,-208.9199981689453,-110.57999420166016,-6.779999732971191
1773230429770134800,13.388134765625,-208.55999755859375,-110.33999633789062,-7.319999694824219
1773230429786125300,13.404125244140625,-208.0800018310547,-110.33999633789062,-7.619999885559082
1773230429802117600,13.42011767578125,-208.97999572753906,-110.22000122070312,-7.259999752044678
1773230429818109200,13.436109130859375,-209.09999084472656,-110.0999984741211,-7.440000057220459
1773230429834130200,13.452130126953126,-208.37998962402344,-110.75999450683594,-7.980000019073486
1773230429850120400,13.468120361328126,-208.6199951171875,-112.0199966430664,-7.679999828338623
1773230429866113300,13.48411328125,-208.44000244140625,-111.89999389648438,-7.799999713897705
1773230429882134000,13.500134033203125,-207.95999145507812,-111.41999816894531,-8.039999961853027
1773230429898125800,13.516125732421875,-208.739990234375,-111.1199951171875,-7.859999656677246
1773230429914117000,13.5321171875,-209.5800018310547,-111,-7.199999809265137
1773230429930108200,13.548108154296875,-209.0399932861328,-111.1199951171875,-6.839999675750732
1773230429946128000,13.5641279296875,-208.739990234375,-110.87999725341797,-7.139999866485596
1773230429962120200,13.5801201171875,-209.33999633789062,-110.69999694824219,-7.019999980926514
1773230429978110500,13.5961103515625,-208.79998779296875,-110.93999481201172,-6.960000038146973
1773230429994103800,13.612103759765626,-209.09999084472656,-111.05999755859375,-6.899999618530273
1773230430010125600,13.62812548828125,-209.8199920654297,-111.05999755859375,-6.899999618530273
1773230430026116000,13.6441162109375,-209.8199920654297,-110.75999450683594,-7.5
1773230430042107100,13.660107177734375,-209.87998962402344,-110.69999694824219,-8.09999942779541
1773230430058128000,13.6761279296875,-210.05999755859375,-110.57999420166016,-7.679999828338623
1773230430074121000,13.692120849609376,-210,-110.45999908447266,-7.859999656677246
1773230430090112500,13.708112548828124,-209.6999969482422,-111.83999633789062,-8.34000015258789
1773230430106131700,13.724131591796874,-208.97999572753906,-112.25999450683594,-8.09999942779541
1773230430122123000,13.740123046875,-208.86000061035156,-111.47999572753906,-8.15999984741211
1773230430138115800,13.75611572265625,-208.86000061035156,-111,-8.039999961853027
1773230430154107100,13.772107177734375,-209.33999633789062,-111,-7.799999713897705
1773230430170128400,13.78812841796875,-209.5800018310547,-111.29999542236328,-8.039999961853027
1773230430186119000,13.804118896484376,-208.97999572753906,-111.1199951171875,-7.799999713897705
1773230430202111500,13.820111572265626,-208.9199981689453,-111.41999816894531,-7.5
1773230430218133500,13.836133544921875,-209.6999969482422,-111.83999633789062,-7.079999923706055
1773230430234122800,13.852122802734375,-209.87998962402344,-110.93999481201172,-7.199999809265137
1773230430250115000,13.868114990234375,-209.5800018310547,-110.87999725341797,-7.559999942779541
1773230430266105900,13.88410595703125,-209.45999145507812,-111.23999786376953,-7.619999885559082
1773230430282127000,13.900127197265626,-209.1599884033203,-110.57999420166016,-8.039999961853027
1773230430298118100,13.9161181640625,-209.39999389648438,-109.86000061035156,-7.5
1773230430314110700,13.93211083984375,-209.39999389648438,-110.33999633789062,-6.960000038146973
1773230430330132000,13.948132080078125,-209.1599884033203,-111.54000091552734,-7.319999694824219
1773230430346124300,13.964124267578125,-208.9199981689453,-112.13999938964844,-7.37999963760376
1773230430362113000,13.980113037109374,-208.67999267578125,-111.72000122070312,-7.319999694824219
1773230430378104800,13.996104736328125,-208.79998779296875,-111.05999755859375,-6.960000038146973
1773230430394126600,14.012126708984376,-208.97999572753906,-110.87999725341797,-6.839999675750732
1773230430410117000,14.0281171875,-208.5,-110.69999694824219,-7.199999809265137
1773230430426110000,14.04410986328125,-208.9199981689453,-110.5199966430664,-7.859999656677246
1773230430442132200,14.06013232421875,-209.87998962402344,-110.75999450683594,-7.679999828338623
1773230430458120400,14.076120361328124,-210.1199951171875,-111.36000061035156,-7.319999694824219
1773230430474113800,14.09211376953125,-209.33999633789062,-110.69999694824219,-7.440000057220459
1773230430490105000,14.10810498046875,-208.67999267578125,-110.69999694824219,-7.319999694824219
1773230430506125800,14.124125732421875,-208.97999572753906,-111.47999572753906,-7.319999694824219
1773230430522118000,14.140117919921876,-208.5,-111.95999908447266,-7.739999771118164
1773230430538108700,14.156108642578126,-208.5,-111.65999603271484,-7.5
1773230430554128600,14.172128662109374,-209.45999145507812,-110.5199966430664,-7.199999809265137
1773230430570122000,14.1881220703125,-209.51998901367188,-110.69999694824219,-7.199999809265137
1773230430586111000,14.204111083984374,-208.97999572753906,-111.36000061035156,-7.259999752044678
1773230430602133800,14.2201337890625,-208.6199951171875,-111.5999984741211,-7.5
1773230430618125800,14.236125732421876,-209.0399932861328,-111.05999755859375,-7.5
1773230430634116400,14.252116455078125,-209.39999389648438,-110.87999725341797,-7.440000057220459
1773230430650108400,14.2681083984375,-209.22000122070312,-111.65999603271484,-7.5
1773230430666130200,14.284130126953125,-208.9199981689453,-111.89999389648438,-7.259999752044678
1773230430682121500,14.30012158203125,-208.79998779296875,-111.95999908447266,-7.619999885559082
1773230430698110700,14.31611083984375,-208.79998779296875,-111.72000122070312,-7.679999828338623
1773230430714104000,14.33210400390625,-208.55999755859375,-110.87999725341797,-6.839999675750732
1773230430730125000,14.348125,-208.67999267578125,-110.87999725341797,-6.71999979019165
1773230430746115000,14.364114990234375,-209.22000122070312,-110.5199966430664,-7.199999809265137
1773230430762107100,14.380107177734375,-209.75999450683594,-110.27999877929688,-7.739999771118164
1773230430778128400,14.39612841796875,-209.5800018310547,-110.87999725341797,-7.139999866485596
1773230430794121200,14.412121337890625,-208.79998779296875,-111.05999755859375,-6.71999979019165
1773230430810112000,14.428112060546875,-208.37998962402344,-111.29999542236328,-7.5
1773230430826133200,14.44413330078125,-208.55999755859375,-111.29999542236328,-7.319999694824219
1773230430842124800,14.460124755859376,-208.9199981689453,-111,-7.139999866485596
1773230430858116000,14.4761162109375,-208.9199981689453,-110.33999633789062,-7.679999828338623
1773230430874107600,14.492107666015626,-209.27999877929688,-110.63999938964844,-7.079999923706055
1773230430890129000,14.50812890625,-209.51998901367188,-111.1199951171875,-6.71999979019165
1773230430906120400,14.524120361328125,-209.0399932861328,-110.0999984741211,-7.199999809265137
1773230430922111200,14.540111328125,-209.09999084472656,-110.0999984741211,-7.259999752044678
1773230430938133000,14.556133056640626,-209.8199920654297,-110.87999725341797,-7.37999963760376
1773230430954122500,14.57212255859375,-209.6999969482422,-110.33999633789062,-7.319999694824219
1773230430970115600,14.588115478515626,-209.09999084472656,-110.87999725341797,-6.839999675750732
1773230430986105900,14.60410595703125,-209.22000122070312,-111.72000122070312,-7.259999752044678
1773230431002128000,14.6201279296875,-208.37998962402344,-111.18000030517578,-7.199999809265137
1773230431018119000,14.636118896484374,-208.55999755859375,-111,-7.079999923706055
1773230431034111000,14.652111083984375,-209.45999145507812,-112.0199966430664,-7.440000057220459
1773230431050132700,14.6681328125,-209.27999877929688,-112.13999938964844,-7.440000057220459
1773230431066122200,14.684122314453125,-208.79998779296875,-111.65999603271484,-7.259999752044678
1773230431082115000,14.700114990234376,-208.0800018310547,-111.72000122070312,-7.319999694824219
1773230431098105000,14.71610498046875,-208.3199920654297,-111.23999786376953,-7.739999771118164
1773230431114125800,14.732125732421874,-209.1599884033203,-111.77999877929688,-7.859999656677246
1773230431130118700,14.74811865234375,-209.22000122070312,-112.25999450683594,-7.980000019073486
1773230431146110000,14.76410986328125,-209.1599884033203,-112.37999725341797,-7.919999599456787
1773230431162131500,14.78013134765625,-208.55999755859375,-112.25999450683594,-7.619999885559082
1773230431178123000,14.796123046875,-208.13999938964844,-111.41999816894531,-7.5
1773230431194111700,14.81211181640625,-208.67999267578125,-111.41999816894531,-7.559999942779541
1773230431210104800,14.828104736328125,-209.0399932861328,-111.65999603271484,-7.019999980926514
1773230431226127000,14.844127197265625,-207.72000122070312,-111.72000122070312,-7.019999980926514
1773230431242117600,14.86011767578125,-207.239990234375,-111.65999603271484,-7.319999694824219
1773230431258107100,14.876107177734376,-208.6199951171875,-111,-7.5
1773230431274100700,14.892100830078125,-208.97999572753906,-111.05999755859375,-8.34000015258789
1773230431290121200,14.908121337890625,-208.86000061035156,-111.47999572753906,-8.220000267028809
1773230431306112800,14.92411279296875,-209.22000122070312,-111.83999633789062,-7.079999923706055
1773230431322104800,14.940104736328125,-208.67999267578125,-111.36000061035156,-7.019999980926514
1773230431338123800,14.956123779296876,-208.3199920654297,-110.63999938964844,-7.5
1773230431354116900,14.972116943359374,-208.79998779296875,-111.1199951171875,-7.619999885559082
1773230431370109700,14.988109619140625,-209.22000122070312,-111.47999572753906,-7.739999771118164
1773230431386130700,15.004130615234375,-208.5,-111.5999984741211,-7.739999771118164
1773230431402121700,15.020121826171875,-207.95999145507812,-111.47999572753906,-7.799999713897705
1773230431418112500,15.036112548828125,-209.09999084472656,-111,-8.220000267028809
1773230431434104000,15.05210400390625,-209.27999877929688,-110.87999725341797,-8.220000267028809
1773230431450125600,15.06812548828125,-209.0399932861328,-110.45999908447266,-8.039999961853027
1773230431466116600,15.08411669921875,-209.09999084472656,-110.27999877929688,-7.919999599456787
1773230431482107100,15.100107177734374,-208.739990234375,-111.77999877929688,-7.919999599456787
1773230431498129400,15.11612939453125,-208.3199920654297,-112.07999420166016,-8.09999942779541
1773230431514121000,15.132120849609375,-209.1599884033203,-111.23999786376953,-8.039999961853027
1773230431530111000,15.148111083984375,-209.6999969482422,-111,-7.859999656677246
1773230431546103800,15.164103759765625,-209.0399932861328,-110.69999694824219,-8.399999618530273
1773230431562124800,15.180124755859374,-208.739990234375,-110.63999938964844,-8.220000267028809
1773230431578115800,15.19611572265625,-209.27999877929688,-110.81999969482422,-7.319999694824219
1773230431594105900,15.21210595703125,-209.45999145507812,-110.63999938964844,-7.619999885559082
1773230431610129000,15.22812890625,-208.67999267578125,-111.54000091552734,-7.679999828338623
1773230431626120400,15.244120361328125,-208.86000061035156,-112.13999938964844,-7.980000019073486
1773230431642111200,15.260111328125,-209.63999938964844,-111.1199951171875,-8.220000267028809
1773230431658101500,15.2761015625,-209.22000122070312,-110.69999694824219,-7.619999885559082
1773230431674123800,15.292123779296874,-208.55999755859375,-111.41999816894531,-7.199999809265137
1773230431690114800,15.30811474609375,-208.67999267578125,-111.83999633789062,-7.199999809265137
1773230431706107000,15.32410693359375,-207.89999389648438,-111,-8.039999961853027
1773230431722128600,15.340128662109375,-207.29998779296875,-110.5199966430664,-8.760000228881836
1773230431738120200,15.3561201171875,-208.1999969482422,-111.41999816894531,-9.059999465942383
1773230431754110000,15.37210986328125,-209.0399932861328,-111.83999633789062,-8.34000015258789
1773230431770130400,15.38813037109375,-208.97999572753906,-111,-7.799999713897705
1773230431786123300,15.404123291015624,-208.6199951171875,-111.1199951171875,-8.34000015258789
1773230431802114300,15.4201142578125,-208.739990234375,-110.81999969482422,-8.039999961853027
1773230431818105000,15.43610498046875,-209.22000122070312,-110.63999938964844,-7.739999771118164
1773230431834127600,15.452127685546875,-209.1599884033203,-111.36000061035156,-8.15999984741211
1773230431850119000,15.468118896484375,-208.79998779296875,-111.05999755859375,-8.039999961853027
1773230431866108200,15.484108154296875,-208.9199981689453,-110.63999938964844,-7.319999694824219
1773230431882099500,15.500099365234375,-209.1599884033203,-110.45999908447266,-7.259999752044678
1773230431898122200,15.516122314453124,-209.09999084472656,-110.57999420166016,-8.039999961853027
1773230431914114300,15.5321142578125,-208.67999267578125,-110.5199966430664,-8.220000267028809
1773230431930105600,15.548105712890624,-208.55999755859375,-110.63999938964844,-7.799999713897705
1773230431946126000,15.5641259765625,-208.37998962402344,-111.1199951171875,-8.09999942779541
1773230431962116400,15.580116455078125,-209.33999633789062,-110.87999725341797,-8.519999504089355
1773230431978109400,15.596109375,-209.27999877929688,-110.33999633789062,-8.819999694824219
1773230431994101200,15.612101318359375,-208.0800018310547,-111.36000061035156,-8.220000267028809
1773230432010122000,15.6281220703125,-208.3199920654297,-112.0199966430664,-8.34000015258789
1773230432026114000,15.644114013671874,-209.1599884033203,-111.23999786376953,-8.09999942779541
1773230432042102300,15.660102294921876,-210.1199951171875,-110.27999877929688,-7.5
1773230432058124800,15.676124755859375,-209.63999938964844,-110.04000091552734,-7.799999713897705
1773230432074118100,15.6921181640625,-209.09999084472656,-110.45999908447266,-7.919999599456787
1773230432090109700,15.708109619140625,-209.33999633789062,-110.22000122070312,-8.460000038146973
1773230432106130200,15.724130126953124,-209.33999633789062,-110.27999877929688,-7.859999656677246
1773230432122121700,15.740121826171874,-209.33999633789062,-110.81999969482422,-7.079999923706055
1773230432138113300,15.75611328125,-209.27999877929688,-111.23999786376953,-7.37999963760376
1773230432154104600,15.7721044921875,-208.9199981689453,-110.75999450683594,-7.440000057220459
1773230432170125800,15.788125732421875,-208.67999267578125,-109.6199951171875,-7.079999923706055
1773230432186117400,15.804117431640625,-208.86000061035156,-109.79999542236328,-7.259999752044678
1773230432202109000,15.82010888671875,-209.1599884033203,-110.5199966430664,-7.199999809265137
1773230432218131000,15.836130859375,-208.6199951171875,-111.18000030517578,-6.779999732971191
1773230432234121500,15.85212158203125,-209.09999084472656,-111.1199951171875,-7.37999963760376
1773230432250113300,15.86811328125,-210.05999755859375,-110.45999908447266,-7.079999923706055
1773230432266103000,15.88410302734375,-209.63999938964844,-111.1199951171875,-6.299999713897705
1773230432282125300,15.900125244140625,-210.29998779296875,-111.05999755859375,-6.420000076293945
1773230432298114600,15.916114501953125,-210.05999755859375,-110.33999633789062,-6.420000076293945
1773230432314108200,15.932108154296875,-209.39999389648438,-110.45999908447266,-6.539999961853027
1773230432330129000,15.94812890625,-209.87998962402344,-110.69999694824219,-7.019999980926514
1773230432346119700,15.96411962890625,-209.63999938964844,-110.27999877929688,-7.139999866485596
1773230432362110700,15.98011083984375,-209.5800018310547,-110.57999420166016,-7.259999752044678
1773230432378102000,15.99610205078125,-209.27999877929688,-111.29999542236328,-7.679999828338623
1773230432394123500,16.01212353515625,-208.5,-111.77999877929688,-7.919999599456787
1773230432410116400,16.028116455078123,-208.37998962402344,-111.41999816894531,-7.980000019073486
1773230432426107100,16.044107177734375,-209.45999145507812,-110.63999938964844,-7.5
1773230432442128400,16.06012841796875,-209.75999450683594,-110.45999908447266,-7.019999980926514
1773230432458120700,16.07612060546875,-209.0399932861328,-110.45999908447266,-6.899999618530273
1773230432474111700,16.09211181640625,-209.09999084472656,-110.75999450683594,-7.739999771118164
1773230432490102300,16.108102294921874,-209.27999877929688,-111.18000030517578,-7.919999599456787
1773230432506124500,16.12412451171875,-208.9199981689453,-111.23999786376953,-6.899999618530273
1773230432522115600,16.140115478515625,-208.6199951171875,-110.87999725341797,-6.299999713897705
1773230432538157300,16.1561572265625,-208.9199981689453,-109.97999572753906,-5.759999752044678
1773230432554179600,16.1721796875,-208.55999755859375,-109.91999816894531,-6.420000076293945
1773230432570170000,16.188170166015624,-208.44000244140625,-110.75999450683594,-7.019999980926514
1773230432586161000,16.204160888671876,-208.86000061035156,-110.81999969482422,-6.899999618530273
1773230432602183400,16.220183349609375,-209.09999084472656,-110.39999389648438,-6.779999732971191
1773230432618174700,16.2361748046875,-209.27999877929688,-110.5199966430664,-6.779999732971191
1773230432634165500,16.25216552734375,-209.09999084472656,-110.63999938964844,-7.37999963760376
1773230432650157000,16.268156982421875,-208.86000061035156,-110.45999908447266,-7.37999963760376
1773230432666177500,16.284177490234374,-208.97999572753906,-110.39999389648438,-6.71999979019165
1773230432682169600,16.300169677734374,-209.75999450683594,-110.87999725341797,-6.71999979019165
1773230432698160000,16.31616015625,-209.94000244140625,-110.93999481201172,-6.599999904632568
1773230432714184000,16.332183837890625,-209.94000244140625,-110.75999450683594,-6.420000076293945
1773230432730174000,16.348174072265625,-210.36000061035156,-110.63999938964844,-6.71999979019165
1773230432746165800,16.364165771484377,-210.239990234375,-110.87999725341797,-6.119999885559082
1773230432762156500,16.380156494140625,-209.1599884033203,-111.05999755859375,-6.119999885559082
1773230432778177500,16.396177490234376,-209.1599884033203,-110.81999969482422,-6.599999904632568
1773230432794169900,16.412169921875,-208.79998779296875,-111.05999755859375,-6.659999847412109
1773230432810160400,16.428160400390624,-208.01998901367188,-111.23999786376953,-6.779999732971191
1773230432826182400,16.444182373046875,-208.37998962402344,-111.05999755859375,-6.179999828338623
1773230432842173700,16.460173583984375,-209.0399932861328,-111.18000030517578,-6.119999885559082
1773230432858164700,16.476164794921875,-209.1599884033203,-111.1199951171875,-6.179999828338623
1773230432874153700,16.49215380859375,-209.5800018310547,-110.93999481201172,-6.839999675750732
1773230432890177500,16.508177490234374,-210.17999267578125,-111.05999755859375,-7.139999866485596
1773230432906166000,16.524166015625,-209.94000244140625,-111.1199951171875,-6.299999713897705
1773230432922161000,16.540160888671874,-209.33999633789062,-110.57999420166016,-6
1773230432938179600,16.5561796875,-209.33999633789062,-110.39999389648438,-5.87999963760376
1773230432954173000,16.5721728515625,-209.27999877929688,-111.1199951171875,-6.119999885559082
1773230432970164500,16.58816455078125,-209.09999084472656,-111.23999786376953,-6.659999847412109
1773230432986155500,16.604155517578125,-209.1599884033203,-111.1199951171875,-6.659999847412109
1773230433002176000,16.620176025390624,-209.0399932861328,-111,-6.539999961853027
1773230433018169000,16.636169189453124,-208.97999572753906,-111.23999786376953,-6.179999828338623
1773230433034160000,16.65216015625,-209.63999938964844,-111.29999542236328,-5.87999963760376
1773230433050182100,16.66818212890625,-210.29998779296875,-111.89999389648438,-6.359999656677246
1773230433066173200,16.684173095703127,-209.5800018310547,-112.31999969482422,-6.179999828338623
1773230433082164200,16.700164306640627,-209.22000122070312,-111.41999816894531,-5.579999923706055
1773230433098154500,16.716154541015626,-209.45999145507812,-111.54000091552734,-5.639999866485596
1773230433114177300,16.73217724609375,-209.51998901367188,-112.25999450683594,-6.119999885559082
1773230433130168300,16.748168212890626,-209.33999633789062,-111.54000091552734,-6.779999732971191
1773230433146158000,16.764157958984374,-209.1599884033203,-110.75999450683594,-7.019999980926514
1773230433162180400,16.780180419921876,-209.39999389648438,-111.1199951171875,-6.779999732971191
1773230433178172200,16.796172119140625,-208.67999267578125,-112.07999420166016,-6.420000076293945
1773230433194163700,16.812163818359377,-208.37998962402344,-112.37999725341797,-6.119999885559082
1773230433210154500,16.828154541015625,-208.97999572753906,-111.72000122070312,-6.839999675750732
1773230433226177000,16.844177001953124,-208.5,-111.29999542236328,-7.37999963760376
1773230433242167000,16.8601669921875,-208.0800018310547,-111.72000122070312,-6.960000038146973
1773230433258159600,16.87615966796875,-207.89999389648438,-111.41999816894531,-6.960000038146973
1773230433274178600,16.892178466796874,-208.3199920654297,-110.81999969482422,-7.019999980926514
1773230433290171600,16.908171630859375,-208.55999755859375,-110.93999481201172,-6.960000038146973
1773230433306163700,16.924163818359375,-209.0399932861328,-111.36000061035156,-6.960000038146973
1773230433322154800,16.94015478515625,-209.5800018310547,-112.13999938964844,-7.319999694824219
1773230433338175000,16.956175048828126,-209.5800018310547,-112.25999450683594,-7.440000057220459
1773230433354166300,16.972166259765626,-209.51998901367188,-111.5999984741211,-7.37999963760376
1773230433370158800,16.988158935546874,-209.33999633789062,-111.83999633789062,-7.619999885559082
1773230433386181000,17.00418115234375,-209.1599884033203,-111.72000122070312,-7.5
1773230433402171000,17.0201708984375,-208.0800018310547,-111.5999984741211,-7.440000057220459
1773230433418163000,17.036162841796877,-208.25999450683594,-111.47999572753906,-7.559999942779541
1773230433434152000,17.05215185546875,-208.739990234375,-111.1199951171875,-7.319999694824219
1773230433450175700,17.06817578125,-208.97999572753906,-111.47999572753906,-6.599999904632568
1773230433466166500,17.08416650390625,-209.33999633789062,-110.57999420166016,-6.239999771118164
1773230433482158000,17.100157958984376,-209.09999084472656,-110.5199966430664,-6.599999904632568
1773230433498180400,17.116180419921875,-209.1599884033203,-111.83999633789062,-7.139999866485596
1773230433514169900,17.132169921875,-209.27999877929688,-111.47999572753906,-7.319999694824219
1773230433530162700,17.14816259765625,-209.22000122070312,-111.23999786376953,-7.199999809265137
1773230433546152200,17.164152099609375,-209.22000122070312,-111.72000122070312,-6.71999979019165
1773230433562175000,17.180175048828126,-208.86000061035156,-111.36000061035156,-6.899999618530273
1773230433578166500,17.19616650390625,-208.79998779296875,-110.93999481201172,-7.5
1773230433594157600,17.212157470703126,-208.97999572753906,-111.41999816894531,-7.799999713897705
1773230433610179600,17.2281796875,-209.22000122070312,-111.89999389648438,-7.739999771118164
1773230433626169600,17.244169677734376,-209.33999633789062,-111.95999908447266,-7.5
1773230433642161000,17.260160888671876,-209.09999084472656,-111.29999542236328,-7.5
1773230433658183700,17.27618359375,-209.22000122070312,-111,-7.259999752044678
1773230433674175700,17.29217578125,-208.67999267578125,-111.47999572753906,-7.319999694824219
1773230433690165500,17.30816552734375,-208.3199920654297,-111.65999603271484,-7.619999885559082
1773230433706156000,17.324156005859376,-208.79998779296875,-111.54000091552734,-7.679999828338623
1773230433722178300,17.34017822265625,-208.79998779296875,-111.36000061035156,-7.259999752044678
1773230433738171100,17.356171142578123,-209.22000122070312,-111.18000030517578,-6.480000019073486
1773230433754161700,17.37216162109375,-209.45999145507812,-111.5999984741211,-6.119999885559082
1773230433770152400,17.38815234375,-208.739990234375,-111.89999389648438,-6.299999713897705
1773230433786172700,17.404172607421874,-208.3199920654297,-111.77999877929688,-6.599999904632568
1773230433802164500,17.42016455078125,-208.67999267578125,-111.72000122070312,-7.199999809265137
1773230433818156800,17.43615673828125,-209.0399932861328,-112.07999420166016,-7.619999885559082
1773230433834176500,17.452176513671876,-208.5,-111.72000122070312,-7.139999866485596
1773230433850170600,17.468170654296873,-208.67999267578125,-111.36000061035156,-6.839999675750732
1773230433866161700,17.48416162109375,-209.33999633789062,-111.72000122070312,-6.779999732971191
1773230433882183000,17.500182861328124,-209.45999145507812,-111.29999542236328,-6.839999675750732
1773230433898172700,17.516172607421876,-208.6199951171875,-111.77999877929688,-7.5
1773230433914163000,17.532162841796875,-207.83999633789062,-111.65999603271484,-7.5
1773230433930155800,17.54815576171875,-208.1999969482422,-111,-7.019999980926514
1773230433946177000,17.564177001953126,-208.79998779296875,-111.29999542236328,-7.079999923706055
1773230433962170000,17.580170166015623,-208.9199981689453,-111.05999755859375,-7.679999828338623
1773230433978161700,17.59616162109375,-208.13999938964844,-111.18000030517578,-7.859999656677246
1773230433994181400,17.612181396484374,-208.1999969482422,-111.41999816894531,-7.259999752044678
1773230434010173700,17.628173583984374,-208.25999450683594,-111.29999542236328,-7.559999942779541
1773230434026165000,17.6441650390625,-208.1999969482422,-110.87999725341797,-8.279999732971191
1773230434042155300,17.6601552734375,-208.55999755859375,-111,-8.15999984741211
1773230434058178600,17.676178466796873,-208.55999755859375,-111.54000091552734,-7.859999656677246
1773230434074168300,17.692168212890625,-209.0399932861328,-112.0199966430664,-8.09999942779541
1773230434090160600,17.70816064453125,-209.39999389648438,-112.25999450683594,-7.859999656677246
1773230434106181600,17.724181640625,-209.39999389648438,-111.1199951171875,-7.259999752044678
1773230434122173700,17.740173583984376,-209.22000122070312,-110.75999450683594,-7.019999980926514
1773230434138165000,17.7561650390625,-208.3199920654297,-111.29999542236328,-7.199999809265137
1773230434154155800,17.77215576171875,-207.95999145507812,-111.23999786376953,-7.859999656677246
1773230434170177000,17.788177001953127,-208.55999755859375,-111.1199951171875,-7.799999713897705
1773230434186168800,17.8041689453125,-208.44000244140625,-112.07999420166016,-8.15999984741211
1773230434202160400,17.820160400390623,-208.13999938964844,-112.31999969482422,-8.460000038146973
1773230434218182700,17.8361826171875,-208.9199981689453,-111.47999572753906,-8.34000015258789
1773230434234173400,17.85217333984375,-209.5800018310547,-111.18000030517578,-7.799999713897705
1773230434250164200,17.868164306640626,-209.0399932861328,-111.54000091552734,-7.259999752044678
1773230434266154500,17.884154541015626,-208.6199951171875,-111.47999572753906,-7.440000057220459
1773230434282177300,17.90017724609375,-208.25999450683594,-111,-7.799999713897705
1773230434298166800,17.916166748046876,-208.37998962402344,-111.23999786376953,-7.919999599456787
1773230434314157800,17.93215771484375,-208.5,-111.1199951171875,-8.460000038146973
1773230434330180400,17.948180419921876,-208.5,-111.41999816894531,-8.699999809265137
1773230434346172700,17.964172607421876,-208.739990234375,-111.29999542236328,-8.039999961853027
1773230434362162400,17.980162353515624,-208.44000244140625,-111,-7.619999885559082
1773230434378153500,17.996153564453124,-208.55999755859375,-111.36000061035156,-7.619999885559082
1773230434394176500,18.012176513671875,-208.739990234375,-111.41999816894531,-7.679999828338623
1773230434410166500,18.02816650390625,-208.67999267578125,-111.41999816894531,-7.859999656677246
1773230434426160400,18.044160400390624,-208.6199951171875,-111.89999389648438,-8.279999732971191
1773230434442179600,18.0601796875,-208.9199981689453,-111.5999984741211,-8.09999942779541
1773230434458172400,18.07617236328125,-209.09999084472656,-111.1199951171875,-7.859999656677246
1773230434474162400,18.092162353515626,-208.79998779296875,-111.95999908447266,-7.619999885559082
1773230434490154200,18.108154296875,-208.86000061035156,-111.95999908447266,-7.139999866485596
1773230434506176300,18.12417626953125,-209.1599884033203,-111.36000061035156,-7.079999923706055
1773230434522166500,18.14016650390625,-209.0399932861328,-112.07999420166016,-7.319999694824219
1773230434538158600,18.15615869140625,-208.79998779296875,-111.89999389648438,-7.199999809265137
1773230434554180900,18.172180908203124,-208.97999572753906,-111.54000091552734,-6.960000038146973
1773230434570171100,18.188171142578124,-208.9199981689453,-112.25999450683594,-7.5
1773230434586161700,18.20416162109375,-208.6199951171875,-112.19999694824219,-7.319999694824219
1773230434602184400,18.220184326171875,-208.3199920654297,-111.65999603271484,-7.259999752044678
1773230434618174500,18.236174560546875,-208.44000244140625,-112.0199966430664,-7.5
1773230434634166000,18.252166015625,-208.6199951171875,-112.43999481201172,-7.559999942779541
1773230434650158800,18.268158935546875,-209.0399932861328,-112.13999938964844,-8.039999961853027
1773230434666178600,18.284178466796874,-208.9199981689453,-111.83999633789062,-8.039999961853027
1773230434682170400,18.30017041015625,-208.3199920654297,-111.54000091552734,-7.440000057220459
1773230434698162000,18.316161865234374,-208.5,-111.77999877929688,-6.960000038146973
1773230434714153200,18.3321533203125,-209.1599884033203,-111.65999603271484,-6.71999979019165
1773230434730175200,18.34817529296875,-209.0399932861328,-111.23999786376953,-7.679999828338623
1773230434746164200,18.364164306640625,-208.9199981689453,-112.0199966430664,-8.399999618530273
1773230434762156800,18.38015673828125,-208.97999572753906,-112.19999694824219,-7.859999656677246
1773230434778180400,18.396180419921876,-208.79998779296875,-112.07999420166016,-7.559999942779541
1773230434794171600,18.412171630859376,-208.739990234375,-112.0199966430664,-8.039999961853027
1773230434810162200,18.428162109375,-208.3199920654297,-111.54000091552734,-8.519999504089355
1773230434826151000,18.44415087890625,-208.6199951171875,-111.18000030517578,-8.579999923706055
1773230434842174700,18.4601748046875,-209.27999877929688,-111.36000061035156,-8.519999504089355
1773230434858164500,18.47616455078125,-209.51998901367188,-112.07999420166016,-8.279999732971191
1773230434874154800,18.49215478515625,-209.5800018310547,-111.54000091552734,-7.739999771118164
1773230434890178600,18.508178466796874,-209.39999389648438,-111.29999542236328,-6.960000038146973
1773230434906168800,18.5241689453125,-208.5,-112.19999694824219,-7.199999809265137
1773230434922160400,18.540160400390626,-208.3199920654297,-111.83999633789062,-7.919999599456787
1773230434938184400,18.556184326171874,-208.6199951171875,-111.89999389648438,-7.619999885559082
1773230434954172200,18.572172119140625,-209.0399932861328,-112.68000030517578,-7.5
1773230434970166000,18.588166015625,-209.6999969482422,-112.19999694824219,-7.559999942779541
1773230434986158300,18.604158447265625,-209.94000244140625,-111.54000091552734,-7.559999942779541
1773230435002179600,18.6201796875,-210.17999267578125,-111.5999984741211,-7.799999713897705
1773230435018170600,18.636170654296876,-209.5800018310547,-111.5999984741211,-7.799999713897705
1773230435034161400,18.652161376953124,-209.1599884033203,-111.65999603271484,-8.220000267028809
1773230435050183000,18.668182861328123,-209.22000122070312,-111.29999542236328,-8.279999732971191
1773230435066173400,18.68417333984375,-208.97999572753906,-111.41999816894531,-8.15999984741211
1773230435082165200,18.700165283203123,-209.0399932861328,-112.19999694824219,-8.039999961853027
1773230435098156800,18.71615673828125,-209.09999084472656,-111.72000122070312,-7.440000057220459
1773230435114178800,18.7321787109375,-208.9199981689453,-111.36000061035156,-7.619999885559082
1773230435130170400,18.74817041015625,-208.6199951171875,-111.5999984741211,-8.34000015258789
1773230435146161200,18.7641611328125,-208.13999938964844,-112.19999694824219,-7.679999828338623
1773230435162182100,18.78018212890625,-208.3199920654297,-111.95999908447266,-7.019999980926514
1773230435178174500,18.796174560546874,-208.67999267578125,-111.23999786376953,-7.619999885559082
1773230435194162400,18.812162353515625,-208.25999450683594,-111.5999984741211,-7.980000019073486
1773230435210156300,18.82815625,-208.25999450683594,-111.54000091552734,-7.739999771118164
1773230435226177500,18.844177490234376,-208.79998779296875,-111.89999389648438,-7.319999694824219
1773230435242168800,18.8601689453125,-209.22000122070312,-112.68000030517578,-7.259999752044678
1773230435258160400,18.876160400390624,-209.22000122070312,-112.31999969482422,-7.980000019073486
1773230435274183200,18.89218310546875,-209.1599884033203,-112.5,-8.579999923706055
1773230435290171100,18.908171142578126,-209.1599884033203,-112.6199951171875,-8.34000015258789
1773230435306162000,18.924161865234375,-209.45999145507812,-112.55999755859375,-7.679999828338623
1773230435322154800,18.94015478515625,-209.8199920654297,-112.86000061035156,-7.679999828338623
1773230435338177500,18.956177490234374,-209.51998901367188,-112.73999786376953,-8.279999732971191
1773230435354167600,18.97216748046875,-209.22000122070312,-113.27999877929688,-8.399999618530273
1773230435370160400,18.988160400390626,-208.55999755859375,-113.39999389648438,-8.519999504089355
1773230435386182000,19.004181884765625,-208.9199981689453,-113.45999908447266,-8.039999961853027
1773230435402173200,19.020173095703125,-209.33999633789062,-114.18000030517578,-7.980000019073486
1773230435418164500,19.03616455078125,-209.22000122070312,-114.05999755859375,-8.399999618530273
1773230435434153000,19.052153076171876,-209.33999633789062,-113.27999877929688,-8.519999504089355
1773230435450177500,19.068177490234376,-208.97999572753906,-113.39999389648438,-8.819999694824219
1773230435466169000,19.084169189453124,-208.6199951171875,-113.69999694824219,-8.34000015258789
1773230435482160000,19.10016015625,-209.27999877929688,-113.15999603271484,-8.34000015258789
1773230435498181600,19.116181640625,-209.75999450683594,-113.15999603271484,-8.639999389648438
1773230435514173200,19.132173095703124,-209.09999084472656,-113.27999877929688,-8.399999618530273
1773230435530164200,19.148164306640624,-208.5,-113.22000122070312,-8.460000038146973
1773230435546153700,19.16415380859375,-208.86000061035156,-113.39999389648438,-9
1773230435562176500,19.180176513671874,-209.09999084472656,-113.15999603271484,-9.539999961853027
1773230435578166300,19.196166259765626,-208.67999267578125,-113.0999984741211,-9.300000190734863
1773230435594157300,19.2121572265625,-209.39999389648438,-113.45999908447266,-8.639999389648438
1773230435610180600,19.2281806640625,-210.4199981689453,-114,-8.639999389648438
1773230435626171000,19.2441708984375,-210.05999755859375,-114,-9.179999351501465
1773230435642162400,19.260162353515625,-210,-113.5199966430664,-9
1773230435658154800,19.27615478515625,-209.6999969482422,-113.69999694824219,-8.09999942779541
1773230435674176300,19.29217626953125,-210.239990234375,-113.81999969482422,-8.15999984741211
1773230435690167600,19.30816748046875,-211.1999969482422,-113.69999694824219,-8.399999618530273
1773230435706157600,19.324157470703124,-210.5399932861328,-113.22000122070312,-8.34000015258789
1773230435722181000,19.34018115234375,-210.47999572753906,-113.04000091552734,-8.639999389648438
1773230435738172200,19.356172119140624,-210.59999084472656,-113.27999877929688,-7.980000019073486
1773230435754162200,19.372162109375,-210.36000061035156,-113.39999389648438,-7.199999809265137
1773230435770151700,19.388151611328126,-210.89999389648438,-113.5199966430664,-7.440000057220459
1773230435786176800,19.4041767578125,-210.95999145507812,-113.57999420166016,-7.739999771118164
1773230435802167600,19.42016748046875,-211.1999969482422,-114,-6.839999675750732
1773230435818158600,19.43615869140625,-211.55999755859375,-114.18000030517578,-6.960000038146973
1773230435834180000,19.45218017578125,-210.95999145507812,-114.23999786376953,-7.679999828338623
1773230435850172000,19.468171875,-211.55999755859375,-114.41999816894531,-7.079999923706055
1773230435866161400,19.484161376953125,-211.86000061035156,-114.05999755859375,-6.420000076293945
1773230435882183700,19.50018359375,-211.1999969482422,-113.45999908447266,-6.299999713897705
1773230435898175500,19.516175537109376,-211.67999267578125,-113.57999420166016,-6.539999961853027
1773230435914165000,19.5321650390625,-211.3199920654297,-113.93999481201172,-7.139999866485596
1773230435930158300,19.548158447265624,-210.95999145507812,-114.1199951171875,-7.619999885559082
1773230435946179300,19.564179443359375,-211.44000244140625,-113.69999694824219,-7.199999809265137
1773230435962171400,19.58017138671875,-211.13999938964844,-113.57999420166016,-7.37999963760376
1773230435978161000,19.596160888671875,-210.95999145507812,-114,-7.37999963760376
1773230435994152000,19.61215185546875,-211.9199981689453,-113.69999694824219,-6.960000038146973
1773230436010175200,19.62817529296875,-212.33999633789062,-114.1199951171875,-6.779999732971191
1773230436026165800,19.644165771484374,-211.5,-114.89999389648438,-6.420000076293945
1773230436042156500,19.660156494140626,-211.67999267578125,-114.77999877929688,-6.599999904632568
1773230436058177500,19.676177490234377,-211.6199951171875,-114.5999984741211,-7.37999963760376
1773230436074170400,19.69217041015625,-211.6199951171875,-114.77999877929688,-7.259999752044678
1773230436090161200,19.7081611328125,-211.67999267578125,-115.37999725341797,-6.480000019073486
1773230436106182100,19.72418212890625,-211.44000244140625,-115.43999481201172,-6.659999847412109
1773230436122175500,19.740175537109376,-211.3199920654297,-115.31999969482422,-6.71999979019165
1773230436138166300,19.756166259765624,-211.79998779296875,-115.6199951171875,-6.119999885559082
1773230436154156000,19.772156005859376,-212.27999877929688,-115.91999816894531,-5.759999752044678
1773230436170179300,19.788179443359375,-211.5,-116.15999603271484,-5.759999752044678
1773230436186170000,19.804170166015624,-211.9199981689453,-115.91999816894531,-6
1773230436202161700,19.82016162109375,-212.33999633789062,-115.13999938964844,-6
1773230436218183000,19.836182861328126,-211.5,-114.95999908447266,-5.699999809265137
1773230436234173000,19.8521728515625,-211.97999572753906,-115.07999420166016,-5.87999963760376
1773230436250163000,19.868162841796874,-212.22000122070312,-114.77999877929688,-5.87999963760376
1773230436266157000,19.884156982421874,-210.83999633789062,-115.13999938964844,-5.639999866485596
1773230436282178300,19.90017822265625,-211.0800018310547,-114.95999908447266,-6.179999828338623
1773230436298169000,19.916169189453125,-211.6199951171875,-114.05999755859375,-6.299999713897705
1773230436314161200,19.9321611328125,-211.55999755859375,-114.18000030517578,-6.059999942779541
1773230436330183000,19.948182861328124,-211.01998901367188,-113.81999969482422,-6.420000076293945
1773230436346174000,19.964174072265624,-211.01998901367188,-113.39999389648438,-6.659999847412109
1773230436362164700,19.980164794921876,-211.55999755859375,-113.63999938964844,-6.659999847412109
1773230436378155000,19.996155029296876,-211.37998962402344,-113.75999450683594,-6.659999847412109
1773230436394178300,20.01217822265625,-210.77999877929688,-114.1199951171875,-6.839999675750732
1773230436410169000,20.028169189453124,-210.59999084472656,-114.29999542236328,-6.960000038146973
1773230436426161200,20.0441611328125,-211.01998901367188,-113.75999450683594,-6.779999732971191
1773230436442181000,20.06018115234375,-210,-113.39999389648438,-6.839999675750732
1773230436458173700,20.076173583984374,-209.63999938964844,-113.57999420166016,-6.899999618530273
1773230436474164700,20.092164794921874,-210.72000122070312,-113.81999969482422,-6.480000019073486
1773230436490155000,20.108155029296874,-210.89999389648438,-113.75999450683594,-6.480000019073486
1773230436506176800,20.1241767578125,-210.239990234375,-113.0999984741211,-6.779999732971191
1773230436522167300,20.140167236328125,-209.87998962402344,-113.5199966430664,-7.37999963760376
1773230436538159400,20.156159423828125,-210.29998779296875,-114.05999755859375,-8.039999961853027
1773230436554180000,20.17218017578125,-210.4199981689453,-113.57999420166016,-7.199999809265137
1773230436570141000,20.188140869140625,-210,-113.63999938964844,-6.960000038146973
1773230436586165000,20.2041650390625,-210,-113.63999938964844,-7.440000057220459
1773230436602154200,20.220154296875,-210,-113.63999938964844,-7.139999866485596
1773230436618178300,20.23617822265625,-209.09999084472656,-113.27999877929688,-7.440000057220459
1773230436634168000,20.25216796875,-209.39999389648438,-113.39999389648438,-7.799999713897705
1773230436650160000,20.26816015625,-209.8199920654297,-113.5199966430664,-7.619999885559082
1773230436666179600,20.2841796875,-209.33999633789062,-112.6199951171875,-6.899999618530273
1773230436682172400,20.30017236328125,-209.87998962402344,-112.5,-6.899999618530273
1773230436698164700,20.316164794921875,-210.47999572753906,-112.68000030517578,-7.679999828338623
1773230436714155800,20.33215576171875,-209.5800018310547,-112.68000030517578,-7.5
1773230436730175000,20.348175048828125,-208.9199981689453,-112.86000061035156,-7.799999713897705
1773230436746168300,20.364168212890625,-209.6999969482422,-113.15999603271484,-7.859999656677246
1773230436762158800,20.380158935546874,-209.6999969482422,-113.57999420166016,-7.5
1773230436778181000,20.39618115234375,-209.94000244140625,-113.27999877929688,-7.859999656677246
1773230436794170600,20.412170654296876,-210.05999755859375,-112.73999786376953,-8.279999732971191
1773230436810164000,20.4281640625,-209.27999877929688,-112.86000061035156,-8.399999618530273
1773230436826155300,20.4441552734375,-209.33999633789062,-112.79999542236328,-8.09999942779541
1773230436842176300,20.46017626953125,-209.22000122070312,-112.25999450683594,-7.799999713897705
1773230436858167000,20.4761669921875,-208.97999572753906,-112.5,-7.679999828338623
1773230436874159400,20.492159423828124,-209.45999145507812,-112.91999816894531,-7.859999656677246
1773230436890180600,20.5081806640625,-209.6999969482422,-113.22000122070312,-7.919999599456787
1773230436906172000,20.524171875,-209.51998901367188,-112.37999725341797,-8.039999961853027
1773230436922162400,20.540162353515626,-209.5800018310547,-112.19999694824219,-7.559999942779541
1773230436938184200,20.55618408203125,-209.27999877929688,-112.37999725341797,-7.5
1773230436954176500,20.572176513671874,-208.86000061035156,-111.95999908447266,-8.15999984741211
1773230436970166300,20.588166259765625,-209.22000122070312,-112.07999420166016,-7.859999656677246
1773230436986158800,20.604158935546874,-209.51998901367188,-111.54000091552734,-7.440000057220459
1773230437002179600,20.6201796875,-209.22000122070312,-111.47999572753906,-7.019999980926514
1773230437018169900,20.636169921875,-209.45999145507812,-112.68000030517578,-6.71999979019165
1773230437034162000,20.652161865234376,-209.63999938964844,-112.79999542236328,-7.139999866485596
1773230437050184400,20.668184326171875,-210.29998779296875,-112.5,-7.079999923706055
1773230437066176300,20.68417626953125,-211.0800018310547,-112.68000030517578,-6.599999904632568
1773230437082166000,20.700166015625,-210.89999389648438,-112.73999786376953,-6.71999979019165
1773230437098157600,20.716157470703124,-210.29998779296875,-112.68000030517578,-7.199999809265137
1773230437114178800,20.7321787109375,-210.59999084472656,-112.79999542236328,-7.799999713897705
1773230437130170600,20.748170654296874,-211.1999969482422,-112.86000061035156,-7.019999980926514
1773230437146162700,20.76416259765625,-210.89999389648438,-112.91999816894531,-6.539999961853027
1773230437162183000,20.780182861328125,-210.17999267578125,-113.0999984741211,-7.259999752044678
1773230437178174200,20.79617431640625,-210.1199951171875,-113.0999984741211,-6.839999675750732
1773230437194165500,20.81216552734375,-210.29998779296875,-113.27999877929688,-6.539999961853027
1773230437210157800,20.82815771484375,-210.47999572753906,-112.97999572753906,-7.079999923706055
1773230437226179800,20.844179931640625,-210.83999633789062,-112.79999542236328,-7.139999866485596
1773230437242169300,20.86016943359375,-210.77999877929688,-113.15999603271484,-6.779999732971191
1773230437258162700,20.87616259765625,-210.6599884033203,-112.86000061035156,-7.019999980926514
1773230437274184200,20.89218408203125,-210.1199951171875,-112.97999572753906,-7.37999963760376
1773230437290176300,20.90817626953125,-210,-112.97999572753906,-6.659999847412109
1773230437306166800,20.924166748046876,-210.36000061035156,-112.68000030517578,-6.299999713897705
1773230437322157000,20.940156982421875,-210.29998779296875,-112.79999542236328,-6.059999942779541
1773230437338177000,20.956177001953126,-209.75999450683594,-112.55999755859375,-6.059999942779541
1773230437354170000,20.972170166015626,-210.47999572753906,-112.31999969482422,-5.819999694824219
1773230437370161000,20.988160888671874,-211.3199920654297,-112.43999481201172,-5.460000038146973
1773230437386184000,21.004183837890626,-210.239990234375,-112.5,-5.579999923706055
1773230437402172000,21.020171875,-209.45999145507812,-112.97999572753906,-6.539999961853027
1773230437418167000,21.0361669921875,-210.59999084472656,-113.39999389648438,-7.259999752044678
1773230437434156500,21.052156494140625,-210.47999572753906,-113.57999420166016,-6.659999847412109
