time,seconds_elapsed,z,y,x
1773230417054164500,0.67216455078125,-12.300000190734863,17.399999618530273,-9.65999984741211
1773230417070187500,0.6881875,-11.279999732971191,17.100000381469727,-11.34000015258789
1773230417086178300,0.70417822265625,-11.039999961853027,17.03999900817871,-12.84000015258789
1773230417102168000,0.72016796875,-11.519999504089355,17.639999389648438,-13.019999504089355
1773230417118190800,0.73619091796875,-10.920000076293945,17.459999084472656,-13.5
1773230417134180400,0.752180419921875,-10.4399995803833,17.760000228881836,-13.559999465942383
1773230417150174200,0.76817431640625,-10.079999923706055,17.69999885559082,-12.960000038146973
1773230417166195700,0.78419580078125,-9.960000038146973,17.15999984741211,-13.079999923706055
1773230417182184200,0.80018408203125,-10.019999504089355,17.15999984741211,-13.5
1773230417198176000,0.816176025390625,-10.019999504089355,16.979999542236328,-13.799999237060547
1773230417214168600,0.83216845703125,-10.260000228881836,17.399999618530273,-13.139999389648438
1773230417230191900,0.84819189453125,-10.979999542236328,17.639999389648438,-12.960000038146973
1773230417246182000,0.864181884765625,-10.859999656677246,18.18000030517578,-13.619999885559082
1773230417286190600,0.904190673828125,-10.019999504089355,16.799999237060547,-13.380000114440918
1773230417302180000,0.92018017578125,-10.380000114440918,16.85999870300293,-13.079999923706055
1773230417318172700,0.936172607421875,-10.859999656677246,17.399999618530273,-12.960000038146973
1773230417334193200,0.952193115234375,-10.019999504089355,18.299999237060547,-12.719999313354492
1773230417350186800,0.968186767578125,-9.479999542236328,18.600000381469727,-12.65999984741211
1773230417366177500,0.984177490234375,-10.019999504089355,18.059999465942383,-13.4399995803833
1773230417382167300,1.000167236328125,-10.199999809265137,17.639999389648438,-14.09999942779541
1773230417398167300,1.016167236328125,-9.65999984741211,17.69999885559082,-13.4399995803833
1773230417414181000,1.03218115234375,-9.539999961853027,17.34000015258789,-12.84000015258789
1773230417430172700,1.048172607421875,-9.719999313354492,17.34000015258789,-13.319999694824219
1773230417446194200,1.064194091796875,-9.239999771118164,17.579999923706055,-13.319999694824219
1773230417462186500,1.0801865234375,-9.420000076293945,17.69999885559082,-13.380000114440918
1773230417478174700,1.0961748046875,-10.380000114440918,17.8799991607666,-13.559999465942383
1773230417494166800,1.112166748046875,-10.559999465942383,18.059999465942383,-12.960000038146973
1773230417510190300,1.1281904296875,-10.199999809265137,17.8799991607666,-13.079999923706055
1773230417526180600,1.1441806640625,-9.779999732971191,17.100000381469727,-13.4399995803833
1773230417542171600,1.160171630859375,-9.960000038146973,17.34000015258789,-13.139999389648438
1773230417558193700,1.176193603515625,-9.719999313354492,17.8799991607666,-12.84000015258789
1773230417574183200,1.19218310546875,-9.539999961853027,18,-13.319999694824219
1773230417590174700,1.2081748046875,-10.139999389648438,17.520000457763672,-13.079999923706055
1773230417606165200,1.224165283203125,-9.779999732971191,17.579999923706055,-12.539999961853027
1773230417622187500,1.2401875,-9.65999984741211,17.219999313354492,-13.019999504089355
1773230417638178800,1.2561787109375,-10.5,16.85999870300293,-13.380000114440918
1773230417654171400,1.27217138671875,-10.5,18,-13.199999809265137
1773230417670194200,1.288194091796875,-9.960000038146973,18.299999237060547,-13.019999504089355
1773230417686184700,1.304184814453125,-10.139999389648438,17.399999618530273,-13.199999809265137
1773230417702174200,1.32017431640625,-10.380000114440918,17.100000381469727,-13.139999389648438
1773230417718197800,1.33619775390625,-10.739999771118164,17.219999313354492,-13.4399995803833
1773230417734188800,1.352188720703125,-11.460000038146973,17.15999984741211,-12.960000038146973
1773230417750179800,1.368179931640625,-11.460000038146973,17.279998779296875,-12.65999984741211
1773230417766169000,1.384169189453125,-11.519999504089355,17.03999900817871,-12.779999732971191
1773230417782191000,1.400191162109375,-11.9399995803833,16.31999969482422,-12.59999942779541
1773230417798184200,1.41618408203125,-12.359999656677246,16.739999771118164,-13.5
1773230417814173200,1.432173095703125,-12,17.520000457763672,-13.559999465942383
1773230417830198000,1.448197998046875,-11.460000038146973,16.739999771118164,-13.079999923706055
1773230417846188300,1.464188232421875,-11.399999618530273,16.5,-13.380000114440918
1773230417862177800,1.480177734375,-11.639999389648438,16.920000076293945,-13.739999771118164
1773230417878168800,1.4961689453125,-10.920000076293945,16.739999771118164,-13.019999504089355
1773230417894192400,1.5121923828125,-10.4399995803833,17.03999900817871,-12.239999771118164
1773230417910185000,1.52818505859375,-10.679999351501465,17.15999984741211,-12.779999732971191
1773230417926174700,1.5441748046875,-10.619999885559082,16.3799991607666,-13.380000114440918
1773230417942197000,1.560197021484375,-11.09999942779541,17.100000381469727,-12.899999618530273
1773230417958186000,1.57618603515625,-11.039999961853027,17.279998779296875,-12
1773230417974177000,1.592177001953125,-11.639999389648438,16.5,-12
1773230417990171400,1.60817138671875,-12.779999732971191,16.3799991607666,-12.779999732971191
1773230418006193700,1.624193603515625,-11.75999927520752,15.899999618530273,-13.139999389648438
1773230418022182100,1.64018212890625,-10.739999771118164,15.839999198913574,-12.719999313354492
1773230418038174700,1.6561748046875,-10.859999656677246,16.440000534057617,-12.479999542236328
1773230418054194200,1.672194091796875,-10.619999885559082,17.100000381469727,-13.139999389648438
1773230418070187800,1.688187744140625,-10.619999885559082,16.799999237060547,-13.619999885559082
1773230418086177000,1.704177001953125,-11.15999984741211,16.739999771118164,-12.960000038146973
1773230418102168300,1.720168212890625,-10.859999656677246,17.100000381469727,-12.65999984741211
1773230418118192600,1.736192626953125,-10.079999923706055,16.559999465942383,-12.899999618530273
1773230418134181000,1.75218115234375,-10.4399995803833,16.440000534057617,-12.179999351501465
1773230418150173700,1.768173583984375,-11.279999732971191,17.15999984741211,-12.359999656677246
1773230418166195500,1.784195556640625,-11.399999618530273,17.520000457763672,-13.199999809265137
1773230418182185500,1.800185546875,-11.279999732971191,17.459999084472656,-12.719999313354492
1773230418198178600,1.816178466796875,-10.619999885559082,17.639999389648438,-12.059999465942383
1773230418214167600,1.83216748046875,-10.619999885559082,17.34000015258789,-12.119999885559082
1773230418230191600,1.848191650390625,-10.619999885559082,16.979999542236328,-12.719999313354492
1773230418246180900,1.864180908203125,-10.319999694824219,17.03999900817871,-12.479999542236328
1773230418262172400,1.88017236328125,-10.679999351501465,16.979999542236328,-12.059999465942383
1773230418278194200,1.896194091796875,-10.5,17.100000381469727,-12.300000190734863
1773230418294185200,1.912185302734375,-10.559999465942383,17.69999885559082,-12.59999942779541
1773230418310178800,1.9281787109375,-10.559999465942383,17.579999923706055,-12.420000076293945
1773230418326169300,1.94416943359375,-10.619999885559082,16.979999542236328,-12.420000076293945
1773230418342189300,1.960189208984375,-11.15999984741211,16.85999870300293,-13.139999389648438
1773230418358182400,1.976182373046875,-10.619999885559082,17.760000228881836,-13.019999504089355
1773230418374172700,1.992172607421875,-10.019999504089355,17.81999969482422,-12.420000076293945
1773230418390193400,2.008193359375,-9.899999618530273,16.979999542236328,-12.719999313354492
1773230418406187500,2.0241875,-10.260000228881836,16.979999542236328,-13.139999389648438
1773230418422175700,2.04017578125,-10.920000076293945,17.639999389648438,-13.079999923706055
1773230418438167800,2.056167724609375,-11.039999961853027,17.639999389648438,-12.84000015258789
1773230418454191400,2.07219140625,-10.619999885559082,17.760000228881836,-13.079999923706055
1773230418470181600,2.088181640625,-10.5,17.940000534057617,-13.019999504089355
1773230418486173000,2.1041728515625,-11.039999961853027,17.579999923706055,-12.59999942779541
1773230418502193700,2.120193603515625,-11.34000015258789,17.100000381469727,-13.019999504089355
1773230418518184200,2.13618408203125,-10.260000228881836,17.219999313354492,-12.84000015258789
1773230418534178600,2.152178466796875,-9.719999313354492,17.520000457763672,-12.300000190734863
1773230418550199800,2.16819970703125,-9.59999942779541,17.399999618530273,-12.779999732971191
1773230418566190300,2.1841904296875,-9.539999961853027,17.15999984741211,-13.4399995803833
1773230418582180900,2.200180908203125,-10.5,16.5,-13.199999809265137
1773230418598172700,2.216172607421875,-9.84000015258789,16.68000030517578,-13.079999923706055
1773230418614193000,2.23219287109375,-9.779999732971191,17.100000381469727,-13.380000114440918
1773230418630186000,2.24818603515625,-9.960000038146973,17.100000381469727,-12.899999618530273
1773230418646176500,2.264176513671875,-10.019999504089355,16.85999870300293,-12.84000015258789
1773230418662197200,2.280197265625,-10.739999771118164,16.799999237060547,-12.779999732971191
1773230418678187500,2.2961875,-10.920000076293945,17.520000457763672,-12.539999961853027
1773230418694181400,2.312181396484375,-10.319999694824219,17.03999900817871,-12.420000076293945
1773230418710173000,2.3281728515625,-9.84000015258789,16.19999885559082,-12.420000076293945
1773230418726194000,2.34419384765625,-10.139999389648438,16.079999923706055,-12.899999618530273
1773230418742184700,2.360184814453125,-10.380000114440918,16.739999771118164,-12.359999656677246
1773230418758175200,2.37617529296875,-10.260000228881836,18,-12
1773230418774197200,2.392197265625,-10.559999465942383,17.34000015258789,-12.119999885559082
1773230418790190600,2.408190673828125,-10.920000076293945,16.979999542236328,-12.059999465942383
1773230418806180900,2.424180908203125,-10.319999694824219,17.219999313354492,-12.65999984741211
1773230418822172000,2.440171875,-9.960000038146973,17.279998779296875,-12.84000015258789
1773230418838193000,2.45619287109375,-9.719999313354492,17.15999984741211,-12.359999656677246
1773230418854184000,2.472183837890625,-9.539999961853027,16.3799991607666,-11.880000114440918
1773230418870177000,2.488177001953125,-9.779999732971191,16.3799991607666,-12.119999885559082
1773230418886199000,2.504198974609375,-10.199999809265137,16.619998931884766,-12.719999313354492
1773230418902187500,2.5201875,-10.019999504089355,16.19999885559082,-12.300000190734863
1773230418918178300,2.53617822265625,-10.4399995803833,16.559999465942383,-12
1773230418934172700,2.552172607421875,-10.380000114440918,16.979999542236328,-11.880000114440918
1773230418950193200,2.568193115234375,-9.539999961853027,16.739999771118164,-11.399999618530273
1773230418966182400,2.584182373046875,-9.960000038146973,16.139999389648438,-12.239999771118164
1773230418982174000,2.600174072265625,-9.960000038146973,16.079999923706055,-12.779999732971191
1773230418998197000,2.616197021484375,-9.960000038146973,17.03999900817871,-12.779999732971191
1773230419014188000,2.63218798828125,-10.260000228881836,17.279998779296875,-12.59999942779541
1773230419030179300,2.648179443359375,-10.319999694824219,17.03999900817871,-12.119999885559082
1773230419046171000,2.6641708984375,-10.739999771118164,18.18000030517578,-12.719999313354492
1773230419062192000,2.680192138671875,-10.380000114440918,18.059999465942383,-12.719999313354492
1773230419078183200,2.69618310546875,-10.380000114440918,17.279998779296875,-12
1773230419094175200,2.71217529296875,-10.380000114440918,17.279998779296875,-12.59999942779541
1773230419110198500,2.728198486328125,-10.199999809265137,16.979999542236328,-12.960000038146973
1773230419126189300,2.744189208984375,-9.300000190734863,16.979999542236328,-12.899999618530273
1773230419142179600,2.7601796875,-8.9399995803833,17.579999923706055,-12.539999961853027
1773230419158169300,2.77616943359375,-10.139999389648438,17.760000228881836,-12.239999771118164
1773230419174193400,2.792193359375,-9.479999542236328,17.760000228881836,-12.059999465942383
1773230419190184700,2.808184814453125,-9.059999465942383,17.219999313354492,-11.699999809265137
1773230419206175200,2.82417529296875,-9.960000038146973,16.440000534057617,-11.75999927520752
1773230419222195700,2.84019580078125,-9.779999732971191,17.100000381469727,-11.880000114440918
1773230419238187000,2.85618701171875,-9.059999465942383,17.639999389648438,-12.179999351501465
1773230419254176800,2.8721767578125,-9.899999618530273,17.760000228881836,-11.880000114440918
1773230419270171100,2.888171142578125,-10.4399995803833,17.399999618530273,-11.880000114440918
1773230419286192600,2.904192626953125,-9.779999732971191,17.219999313354492,-12.359999656677246
1773230419302183400,2.920183349609375,-9.179999351501465,17.399999618530273,-12.59999942779541
1773230419318172700,2.936172607421875,-9.119999885559082,17.459999084472656,-12.300000190734863
1773230419334195700,2.95219580078125,-9.84000015258789,17.760000228881836,-12.420000076293945
1773230419350189300,2.968189208984375,-10.019999504089355,17.459999084472656,-12.59999942779541
1773230419366179800,2.984179931640625,-9.960000038146973,16.440000534057617,-12.239999771118164
1773230419382170000,3.000170166015625,-9.84000015258789,16.440000534057617,-12.479999542236328
1773230419398191400,3.01619140625,-9.719999313354492,16.920000076293945,-13.019999504089355
1773230419414182700,3.0321826171875,-9.719999313354492,17.34000015258789,-12.239999771118164
1773230419430173700,3.048173583984375,-9.59999942779541,17.639999389648438,-12.059999465942383
1773230419446194700,3.064194580078125,-9.65999984741211,17.15999984741211,-12.899999618530273
1773230419462187000,3.08018701171875,-10.199999809265137,17.15999984741211,-12.65999984741211
1773230419478177300,3.09617724609375,-10.4399995803833,17.69999885559082,-12.479999542236328
1773230419494170000,3.112170166015625,-9.539999961853027,17.219999313354492,-12.719999313354492
1773230419510192600,3.128192626953125,-9.479999542236328,17.100000381469727,-12.420000076293945
1773230419526182700,3.1441826171875,-10.199999809265137,17.279998779296875,-11.880000114440918
1773230419542173700,3.160173583984375,-10.139999389648438,17.34000015258789,-12.179999351501465
1773230419558193700,3.176193603515625,-9.59999942779541,17.81999969482422,-12
1773230419574184700,3.192184814453125,-9.059999465942383,17.760000228881836,-11.75999927520752
1773230419590177300,3.20817724609375,-9.539999961853027,17.579999923706055,-12.420000076293945
1773230419606199000,3.224198974609375,-10.139999389648438,17.8799991607666,-12.960000038146973
1773230419622189300,3.240189208984375,-10.139999389648438,17.940000534057617,-12.899999618530273
1773230419638182100,3.25618212890625,-9.899999618530273,17.219999313354492,-12.420000076293945
1773230419654173400,3.27217333984375,-10.079999923706055,17.34000015258789,-12.300000190734863
1773230419670196700,3.28819677734375,-10.619999885559082,17.34000015258789,-12
1773230419686186200,3.304186279296875,-10.319999694824219,17.15999984741211,-12
1773230419702177800,3.320177734375,-10.019999504089355,18.059999465942383,-12.539999961853027
1773230419718199600,3.336199462890625,-10.019999504089355,17.760000228881836,-12.119999885559082
1773230419734188300,3.352188232421875,-10.380000114440918,17.459999084472656,-11.819999694824219
1773230419750183400,3.368183349609375,-9.899999618530273,17.639999389648438,-11.9399995803833
1773230419766170600,3.384170654296875,-8.9399995803833,17.100000381469727,-11.9399995803833
1773230419782193200,3.400193115234375,-8.819999694824219,17.03999900817871,-12.779999732971191
1773230419798184200,3.41618408203125,-9.300000190734863,17.459999084472656,-13.319999694824219
1773230419814177000,3.432177001953125,-9.899999618530273,17.760000228881836,-12.960000038146973
1773230419830199300,3.44819921875,-10.139999389648438,18.299999237060547,-12.359999656677246
1773230419846189600,3.464189453125,-9.539999961853027,18.059999465942383,-11.9399995803833
1773230419862181400,3.480181396484375,-8.699999809265137,18,-12.119999885559082
1773230419878170600,3.496170654296875,-8.639999389648438,17.760000228881836,-12.300000190734863
1773230419894195700,3.51219580078125,-8.639999389648438,17.399999618530273,-12.179999351501465
1773230419910185700,3.528185791015625,-8.699999809265137,18,-12.479999542236328
1773230419926176800,3.5441767578125,-9.300000190734863,18.35999870300293,-12.420000076293945
1773230419942197500,3.560197509765625,-9.960000038146973,18.299999237060547,-12.239999771118164
1773230419958187500,3.5761875,-9.899999618530273,17.81999969482422,-12.239999771118164
1773230419974179300,3.592179443359375,-9.65999984741211,17.34000015258789,-12.239999771118164
1773230419990173400,3.60817333984375,-9.479999542236328,17.579999923706055,-12
1773230420006193700,3.624193603515625,-9.539999961853027,18.18000030517578,-11.699999809265137
1773230420022184700,3.640184814453125,-9.59999942779541,18.299999237060547,-12
1773230420038177000,3.656177001953125,-10.139999389648438,18.18000030517578,-12
1773230420054198500,3.672198486328125,-10.199999809265137,18.059999465942383,-12.059999465942383
1773230420070188800,3.688188720703125,-10.139999389648438,18.239999771118164,-12.179999351501465
1773230420086179800,3.704179931640625,-10.260000228881836,18.18000030517578,-12.359999656677246
1773230420102172000,3.720171875,-10.019999504089355,18.059999465942383,-12.420000076293945
1773230420118193700,3.736193603515625,-9.960000038146973,17.520000457763672,-11.519999504089355
1773230420134183200,3.75218310546875,-9.899999618530273,18,-11.579999923706055
1773230420150176500,3.768176513671875,-10.380000114440918,19.260000228881836,-12
1773230420166197500,3.784197509765625,-10.139999389648438,18.479999542236328,-12
1773230420182187300,3.800187255859375,-9.65999984741211,17.940000534057617,-12.119999885559082
1773230420198178300,3.81617822265625,-9.779999732971191,18.600000381469727,-11.9399995803833
1773230420214169600,3.832169677734375,-9.84000015258789,18.35999870300293,-11.819999694824219
1773230420230193400,3.848193359375,-9.420000076293945,18.479999542236328,-11.75999927520752
1773230420246184200,3.86418408203125,-9.239999771118164,18.959999084472656,-11.880000114440918
1773230420262174000,3.880174072265625,-9.84000015258789,18.65999984741211,-12
1773230420278196500,3.896196533203125,-9.899999618530273,18.53999900817871,-12
1773230420294188500,3.9121884765625,-10.260000228881836,18.18000030517578,-12.179999351501465
1773230420310181400,3.928181396484375,-9.960000038146973,18.35999870300293,-12
1773230420326171600,3.944171630859375,-9.779999732971191,18.479999542236328,-12.059999465942383
1773230420342193000,3.96019287109375,-10.079999923706055,17.639999389648438,-12.420000076293945
1773230420358183000,3.976182861328125,-9.359999656677246,17.520000457763672,-12.779999732971191
1773230420374176300,3.99217626953125,-9,18.18000030517578,-12.899999618530273
1773230420390198300,4.0081982421875,-9.420000076293945,18.35999870300293,-12.539999961853027
1773230420406188000,4.02418798828125,-9.65999984741211,18.299999237060547,-12.179999351501465
1773230420422178600,4.040178466796875,-9.539999961853027,18.059999465942383,-12.119999885559082
1773230420438170000,4.056170166015625,-9.779999732971191,18.35999870300293,-12.479999542236328
1773230420454192400,4.0721923828125,-10.199999809265137,17.81999969482422,-13.019999504089355
1773230420470184400,4.088184326171875,-10.5,18.119998931884766,-12.539999961853027
1773230420486174000,4.104174072265625,-10.5,18.299999237060547,-12.420000076293945
1773230420502195000,4.12019482421875,-9.84000015258789,17.8799991607666,-12.300000190734863
1773230420518186500,4.1361865234375,-10.199999809265137,17.459999084472656,-11.639999389648438
1773230420534177500,4.152177490234375,-10.4399995803833,17.34000015258789,-11.75999927520752
1773230420550201000,4.168201171875,-9.899999618530273,17.940000534057617,-12.420000076293945
1773230420566193400,4.184193359375,-10.619999885559082,18,-12.119999885559082
1773230420582182100,4.20018212890625,-10.859999656677246,17.69999885559082,-11.9399995803833
1773230420598173200,4.216173095703125,-10.859999656677246,17.940000534057617,-12.059999465942383
1773230420614194200,4.232194091796875,-10.679999351501465,17.8799991607666,-11.819999694824219
1773230420630188300,4.248188232421875,-10.139999389648438,17.940000534057617,-11.75999927520752
1773230420646179000,4.264178955078125,-10.079999923706055,18.420000076293945,-11.880000114440918
1773230420662198800,4.28019873046875,-10.380000114440918,18.479999542236328,-12
1773230420678189600,4.296189453125,-10.079999923706055,18,-11.9399995803833
1773230420694181600,4.312181640625,-9.359999656677246,18,-11.75999927520752
1773230420710174200,4.32817431640625,-9.899999618530273,18.299999237060547,-12.359999656677246
1773230420726194200,4.344194091796875,-10.199999809265137,18.18000030517578,-11.9399995803833
1773230420742185200,4.360185302734375,-10.019999504089355,17.8799991607666,-12
1773230420758178300,4.37617822265625,-9.179999351501465,18.299999237060547,-12.420000076293945
1773230420774198000,4.392197998046875,-8.9399995803833,18,-12.239999771118164
1773230420790191600,4.408191650390625,-9.719999313354492,17.69999885559082,-12.179999351501465
1773230420806181600,4.424181640625,-9.84000015258789,17.940000534057617,-12.420000076293945
1773230420822174000,4.440174072265625,-9.899999618530273,17.8799991607666,-12.719999313354492
1773230420838193700,4.456193603515625,-9.84000015258789,18.420000076293945,-12.59999942779541
1773230420854187800,4.472187744140625,-9.719999313354492,17.8799991607666,-12.84000015258789
1773230420870178600,4.488178466796875,-10.380000114440918,17.279998779296875,-12.539999961853027
1773230420886197500,4.504197509765625,-10.199999809265137,18,-12.359999656677246
1773230420902189300,4.520189208984375,-9.65999984741211,18.299999237060547,-12.420000076293945
1773230420918180900,4.536180908203125,-9.84000015258789,18,-12
1773230420934174500,4.552174560546875,-9.899999618530273,18,-12.059999465942383
1773230420950195500,4.568195556640625,-10.260000228881836,18.53999900817871,-12.359999656677246
1773230420966186800,4.584186767578125,-10.559999465942383,18,-12.119999885559082
1773230420982175700,4.60017578125,-10.5,17.399999618530273,-12.059999465942383
1773230420998197200,4.616197265625,-10.319999694824219,17.8799991607666,-12.179999351501465
1773230421014188300,4.632188232421875,-11.34000015258789,17.579999923706055,-12
1773230421030183000,4.648182861328125,-11.34000015258789,17.81999969482422,-11.819999694824219
1773230421046174000,4.664174072265625,-10.260000228881836,18.239999771118164,-11.639999389648438
1773230421062195700,4.68019580078125,-10.079999923706055,17.520000457763672,-11.639999389648438
1773230421078186000,4.69618603515625,-10.019999504089355,17.69999885559082,-11.880000114440918
1773230421094177000,4.712177001953125,-10.260000228881836,18.059999465942383,-11.579999923706055
1773230421110197500,4.728197509765625,-10.739999771118164,17.8799991607666,-11.880000114440918
1773230421126190000,4.744190185546875,-10.800000190734863,17.219999313354492,-12.239999771118164
1773230421142180400,4.760180419921875,-10.739999771118164,17.279998779296875,-12
1773230421158172400,4.77617236328125,-10.619999885559082,18.18000030517578,-11.34000015258789
1773230421174193000,4.79219287109375,-9.719999313354492,17.579999923706055,-11.579999923706055
1773230421190186000,4.80818603515625,-9.359999656677246,17.459999084472656,-11.880000114440918
1773230421206174700,4.8241748046875,-10.139999389648438,17.279998779296875,-11.880000114440918
1773230421222197000,4.840197021484375,-9.65999984741211,17.15999984741211,-12.179999351501465
1773230421238187800,4.856187744140625,-9.239999771118164,18.18000030517578,-11.880000114440918
1773230421254180400,4.872180419921875,-9.84000015258789,18.059999465942383,-12
1773230421270173200,4.888173095703125,-10.139999389648438,18,-12.479999542236328
1773230421286194400,4.9041943359375,-10.260000228881836,18.959999084472656,-12.479999542236328
1773230421302184400,4.920184326171875,-10.739999771118164,18.420000076293945,-12.779999732971191
1773230421318174500,4.936174560546875,-10.979999542236328,17.399999618530273,-13.079999923706055
1773230421334196000,4.952196044921875,-10.559999465942383,17.69999885559082,-12.539999961853027
1773230421350188800,4.968188720703125,-10.4399995803833,17.760000228881836,-12
1773230421366182100,4.98418212890625,-10.079999923706055,17.520000457763672,-12.960000038146973
1773230421382172200,5.000172119140625,-9.420000076293945,17.15999984741211,-13.380000114440918
1773230421398193200,5.016193115234375,-10.019999504089355,17.279998779296875,-12.179999351501465
1773230421414183000,5.032182861328125,-10.5,18.059999465942383,-11.639999389648438
1773230421430175700,5.04817578125,-10.319999694824219,17.579999923706055,-12.65999984741211
1773230421446195500,5.064195556640625,-10.199999809265137,16.739999771118164,-13.199999809265137
1773230421462188800,5.080188720703125,-10.319999694824219,17.15999984741211,-13.019999504089355
1773230421478180000,5.09618017578125,-10.019999504089355,17.8799991607666,-13.199999809265137
1773230421494169300,5.11216943359375,-9.779999732971191,17.34000015258789,-12.779999732971191
1773230421510194700,5.128194580078125,-9.84000015258789,16.979999542236328,-12.179999351501465
1773230421526185500,5.144185546875,-10.079999923706055,17.279998779296875,-12.539999961853027
1773230421542174700,5.1601748046875,-10.920000076293945,17.03999900817871,-12.479999542236328
1773230421558196000,5.176196044921875,-11.15999984741211,17.34000015258789,-11.9399995803833
1773230421574187000,5.19218701171875,-11.039999961853027,18.119998931884766,-12.359999656677246
1773230421590180000,5.20818017578125,-11.219999313354492,18,-12.479999542236328
1773230421606169600,5.224169677734375,-11.09999942779541,17.639999389648438,-12.84000015258789
1773230421622192400,5.2401923828125,-10.5,17.579999923706055,-12.59999942779541
1773230421638182400,5.256182373046875,-10.679999351501465,17.760000228881836,-12.420000076293945
1773230421654175200,5.27217529296875,-10.5,17.69999885559082,-13.019999504089355
1773230421670198300,5.2881982421875,-10.800000190734863,17.520000457763672,-12.539999961853027
1773230421686186200,5.304186279296875,-11.460000038146973,18.119998931884766,-11.399999618530273
1773230421702179600,5.3201796875,-10.199999809265137,18.059999465942383,-11.699999809265137
1773230421718201900,5.336201904296875,-9.479999542236328,17.520000457763672,-12.779999732971191
1773230421734194000,5.35219384765625,-9.899999618530273,17.520000457763672,-13.019999504089355
1773230421750184700,5.368184814453125,-10.199999809265137,17.8799991607666,-12.59999942779541
1773230421766174500,5.384174560546875,-10.619999885559082,17.520000457763672,-11.880000114440918
1773230421782197500,5.400197509765625,-10.619999885559082,16.559999465942383,-11.819999694824219
1773230421798187300,5.416187255859375,-10.4399995803833,17.100000381469727,-11.75999927520752
1773230421814178600,5.432178466796875,-10.079999923706055,17.81999969482422,-11.9399995803833
1773230421830201900,5.448201904296875,-10.319999694824219,17.639999389648438,-12.539999961853027
1773230421846191900,5.46419189453125,-10.739999771118164,17.459999084472656,-12.719999313354492
1773230421862183400,5.480183349609375,-10.380000114440918,17.279998779296875,-12.300000190734863
1773230421878173700,5.496173583984375,-10.739999771118164,17.279998779296875,-12
1773230421894197800,5.51219775390625,-11.279999732971191,17.03999900817871,-12.059999465942383
1773230421910187300,5.528187255859375,-10.739999771118164,17.279998779296875,-11.9399995803833
1773230421926179800,5.544179931640625,-9.960000038146973,17.219999313354492,-12
1773230421942199300,5.56019921875,-10.139999389648438,17.03999900817871,-12.359999656677246
1773230421958192600,5.576192626953125,-10.800000190734863,17.579999923706055,-12.119999885559082
1773230421974182000,5.592181884765625,-10.800000190734863,17.760000228881836,-12.359999656677246
1773230421990174500,5.608174560546875,-10.5,17.8799991607666,-12.479999542236328
1773230422006195700,5.62419580078125,-10.739999771118164,18,-12.359999656677246
1773230422022185500,5.640185546875,-10.679999351501465,17.34000015258789,-12.119999885559082
1773230422038176500,5.656176513671875,-10.260000228881836,16.739999771118164,-12.65999984741211
1773230422054198500,5.672198486328125,-10.800000190734863,16.799999237060547,-12.719999313354492
1773230422070192400,5.6881923828125,-11.09999942779541,17.279998779296875,-12.479999542236328
1773230422086180400,5.704180419921875,-10.319999694824219,17.219999313354492,-13.25999927520752
1773230422102172000,5.720171875,-9.65999984741211,17.459999084472656,-13.139999389648438
1773230422118194400,5.7361943359375,-10.260000228881836,17.639999389648438,-11.9399995803833
1773230422134184700,5.752184814453125,-10.5,16.739999771118164,-11.519999504089355
1773230422150178600,5.768178466796875,-10.199999809265137,16.739999771118164,-12.119999885559082
1773230422166199600,5.784199462890625,-10.5,16.979999542236328,-12.84000015258789
1773230422182190600,5.800190673828125,-10.199999809265137,16.85999870300293,-13.019999504089355
1773230422198180900,5.816180908203125,-9.960000038146973,17.15999984741211,-12.65999984741211
1773230422214173000,5.8321728515625,-10.019999504089355,16.920000076293945,-12.65999984741211
1773230422230195700,5.84819580078125,-9.899999618530273,16.68000030517578,-12.779999732971191
1773230422246185500,5.864185546875,-10.260000228881836,16.559999465942383,-12.300000190734863
1773230422262176000,5.880176025390625,-10.5,16.68000030517578,-12.059999465942383
1773230422278198300,5.8961982421875,-10.260000228881836,16.31999969482422,-12.359999656677246
1773230422294119400,5.912119384765625,-10.199999809265137,16.020000457763672,-12.539999961853027
1773230422310113000,5.928113037109375,-9.899999618530273,16.559999465942383,-12.119999885559082
1773230422326140200,5.94414013671875,-9.779999732971191,16.68000030517578,-11.75999927520752
1773230422342123800,5.960123779296875,-10.800000190734863,16.5,-11.699999809265137
1773230422358115000,5.976114990234375,-11.279999732971191,16.85999870300293,-12.239999771118164
1773230422374107600,5.992107666015625,-11.09999942779541,16.85999870300293,-11.819999694824219
1773230422390130700,6.008130615234375,-10.260000228881836,16.68000030517578,-11.880000114440918
1773230422406120200,6.0241201171875,-9.65999984741211,17.219999313354492,-12.84000015258789
1773230422422112000,6.040112060546875,-9.779999732971191,16.979999542236328,-12.420000076293945
1773230422438132200,6.05613232421875,-10.739999771118164,16.619998931884766,-11.75999927520752
1773230422454124800,6.072124755859375,-11.579999923706055,16.920000076293945,-11.699999809265137
1773230422470116000,6.0881162109375,-10.5,17.639999389648438,-12
1773230422486106600,6.104106689453125,-8.9399995803833,17.520000457763672,-12.59999942779541
1773230422502128400,6.12012841796875,-9.899999618530273,17.579999923706055,-12.479999542236328
1773230422518120200,6.1361201171875,-10.139999389648438,17.279998779296875,-12.239999771118164
1773230422534109400,6.152109375,-10.380000114440918,17.100000381469727,-11.819999694824219
1773230422550133200,6.16813330078125,-10.979999542236328,17.520000457763672,-11.9399995803833
1773230422566124000,6.1841240234375,-10.619999885559082,17.100000381469727,-12.479999542236328
1773230422582114600,6.200114501953125,-10.679999351501465,16.559999465942383,-12.239999771118164
1773230422598104800,6.216104736328125,-10.920000076293945,17.15999984741211,-12.359999656677246
1773230422614126300,6.232126220703125,-11.039999961853027,17.81999969482422,-12.960000038146973
1773230422630119000,6.248118896484375,-10.739999771118164,17.279998779296875,-13.199999809265137
1773230422646111000,6.264111083984375,-10.319999694824219,17.219999313354492,-12.960000038146973
1773230422662100500,6.2801005859375,-10.559999465942383,17.69999885559082,-12.359999656677246
1773230422678122200,6.296122314453125,-10.559999465942383,16.920000076293945,-11.75999927520752
1773230422694114600,6.312114501953125,-10.260000228881836,16.739999771118164,-11.9399995803833
1773230422710106000,6.328106201171875,-10.319999694824219,17.579999923706055,-12.119999885559082
1773230422726128400,6.34412841796875,-10.679999351501465,18.18000030517578,-12.359999656677246
1773230422742118700,6.36011865234375,-10.260000228881836,17.579999923706055,-12.65999984741211
1773230422758108200,6.376108154296875,-10.260000228881836,17.15999984741211,-12.359999656677246
1773230422774131200,6.392131103515625,-11.039999961853027,17.459999084472656,-12.65999984741211
1773230422790122800,6.408122802734375,-10.4399995803833,17.279998779296875,-13.319999694824219
1773230422806112000,6.424112060546875,-10.260000228881836,17.03999900817871,-13.199999809265137
1773230422822104800,6.440104736328125,-10.619999885559082,17.69999885559082,-13.199999809265137
1773230422838127400,6.45612744140625,-10.679999351501465,17.760000228881836,-12.84000015258789
1773230422854116000,6.4721162109375,-10.199999809265137,17.100000381469727,-13.25999927520752
1773230422870109200,6.488109130859375,-9.179999351501465,17.639999389648438,-13.679999351501465
1773230422886129400,6.50412939453125,-9.479999542236328,18.35999870300293,-12.719999313354492
1773230422902121200,6.520121337890625,-10.380000114440918,17.760000228881836,-12.359999656677246
1773230422918111200,6.536111328125,-10.739999771118164,16.920000076293945,-12.239999771118164
1773230422934105000,6.55210498046875,-10.139999389648438,16.979999542236328,-12.119999885559082
1773230422950127900,6.5681279296875,-9.960000038146973,17.03999900817871,-12.719999313354492
1773230422966119000,6.584118896484375,-10.4399995803833,17.520000457763672,-13.5
1773230422982107000,6.60010693359375,-10.859999656677246,18.239999771118164,-13.319999694824219
1773230422998128600,6.616128662109375,-10.800000190734863,17.279998779296875,-13.079999923706055
1773230423014120200,6.6321201171875,-10.979999542236328,16.799999237060547,-13.4399995803833
1773230423030113300,6.64811328125,-11.279999732971191,17.579999923706055,-12.84000015258789
1773230423046104000,6.66410400390625,-10.859999656677246,16.979999542236328,-12.300000190734863
1773230423062125000,6.680125,-10.800000190734863,16.3799991607666,-12.359999656677246
1773230423078115600,6.696115478515625,-10.979999542236328,17.399999618530273,-11.880000114440918
1773230423094106400,6.7121064453125,-10.5,18.059999465942383,-11.699999809265137
1773230423110128600,6.728128662109375,-10.380000114440918,17.760000228881836,-12.84000015258789
1773230423126120400,6.744120361328125,-10.4399995803833,18.239999771118164,-13.559999465942383
1773230423142111700,6.76011181640625,-10.139999389648438,18.53999900817871,-12.719999313354492
1773230423158103300,6.776103271484375,-9.899999618530273,18.18000030517578,-11.880000114440918
1773230423174125300,6.792125244140625,-10.619999885559082,18.18000030517578,-12.359999656677246
1773230423190114600,6.808114501953125,-11.15999984741211,17.8799991607666,-12.84000015258789
1773230423206106600,6.824106689453125,-10.380000114440918,18.059999465942383,-12.719999313354492
1773230423222127000,6.840127197265625,-10.679999351501465,18,-12.59999942779541
1773230423238119700,6.85611962890625,-10.979999542236328,17.520000457763672,-12.359999656677246
1773230423254111000,6.872111083984375,-10.619999885559082,17.219999313354492,-12.420000076293945
1773230423270103000,6.88810302734375,-10.679999351501465,17.760000228881836,-12.59999942779541
1773230423286123800,6.904123779296875,-10.619999885559082,18.420000076293945,-12.84000015258789
1773230423302115000,6.920114990234375,-10.619999885559082,17.8799991607666,-12.84000015258789
1773230423318106600,6.936106689453125,-10.199999809265137,17.8799991607666,-12.539999961853027
1773230423334127600,6.952127685546875,-10.079999923706055,18.18000030517578,-12.479999542236328
1773230423350119700,6.96811962890625,-10.800000190734863,18.420000076293945,-12.300000190734863
1773230423366109200,6.984109130859375,-11.039999961853027,18.53999900817871,-12.239999771118164
1773230423382100700,7.000100830078125,-10.260000228881836,18.53999900817871,-11.9399995803833
1773230423398122800,7.016122802734375,-10.260000228881836,18.239999771118164,-12.059999465942383
1773230423414112300,7.0321123046875,-10.4399995803833,17.579999923706055,-12.719999313354492
1773230423430106000,7.048106201171875,-10.139999389648438,17.81999969482422,-12.239999771118164
1773230423446128600,7.064128662109375,-10.619999885559082,18.299999237060547,-12.179999351501465
1773230423462118000,7.080117919921875,-10.679999351501465,18.65999984741211,-12.539999961853027
1773230423478109000,7.09610888671875,-10.5,18.779998779296875,-12.59999942779541
1773230423494101800,7.112101806640625,-10.679999351501465,18.600000381469727,-12.899999618530273
1773230423510123300,7.128123291015625,-10.679999351501465,18.299999237060547,-13.25999927520752
1773230423526114600,7.144114501953125,-10.859999656677246,18.239999771118164,-12.899999618530273
1773230423542105000,7.16010498046875,-10.739999771118164,18.059999465942383,-12.719999313354492
1773230423558126300,7.176126220703125,-10.739999771118164,18.239999771118164,-12.960000038146973
1773230423574118000,7.192117919921875,-10.619999885559082,18.53999900817871,-12.960000038146973
1773230423590110000,7.20810986328125,-10.619999885559082,18.299999237060547,-12.59999942779541
1773230423606131500,7.22413134765625,-11.039999961853027,18.18000030517578,-12.300000190734863
1773230423622121200,7.240121337890625,-10.079999923706055,18.18000030517578,-12.059999465942383
1773230423638114800,7.25611474609375,-10.319999694824219,18.119998931884766,-12
1773230423654103000,7.27210302734375,-11.039999961853027,17.100000381469727,-12.359999656677246
1773230423670127600,7.288127685546875,-10.859999656677246,17.459999084472656,-12.300000190734863
1773230423686116400,7.304116455078125,-10.739999771118164,18.53999900817871,-11.819999694824219
1773230423702108700,7.320108642578125,-10.559999465942383,18.53999900817871,-11.519999504089355
1773230423718128600,7.336128662109375,-10.920000076293945,18.420000076293945,-11.819999694824219
1773230423734120400,7.352120361328125,-11.279999732971191,18.239999771118164,-11.880000114440918
1773230423750113500,7.368113525390625,-11.039999961853027,18.059999465942383,-11.819999694824219
1773230423766102300,7.384102294921875,-10.800000190734863,17.940000534057617,-11.639999389648438
1773230423782124000,7.4001240234375,-10.619999885559082,18.119998931884766,-11.34000015258789
1773230423798116600,7.41611669921875,-10.559999465942383,18.119998931884766,-11.34000015258789
1773230423814107000,7.43210693359375,-10.380000114440918,18.18000030517578,-11.699999809265137
1773230423830130400,7.44813037109375,-10.260000228881836,18.420000076293945,-12.119999885559082
1773230423846119700,7.46411962890625,-10.800000190734863,18.420000076293945,-12.479999542236328
1773230423862111700,7.48011181640625,-10.619999885559082,18,-12.899999618530273
1773230423878102000,7.49610205078125,-10.319999694824219,17.940000534057617,-12.84000015258789
1773230423894123300,7.512123291015625,-10.920000076293945,17.940000534057617,-12
1773230423910116000,7.5281162109375,-10.859999656677246,17.760000228881836,-12.059999465942383
1773230423926106600,7.544106689453125,-10.260000228881836,18.299999237060547,-12.420000076293945
1773230423942128600,7.560128662109375,-10.139999389648438,18.479999542236328,-11.819999694824219
1773230423958117600,7.57611767578125,-10.739999771118164,18,-11.9399995803833
1773230423974111700,7.59211181640625,-11.34000015258789,17.760000228881836,-12.59999942779541
1773230423990102000,7.60810205078125,-11.519999504089355,18.239999771118164,-12.179999351501465
1773230424006124000,7.6241240234375,-11.34000015258789,18.53999900817871,-11.9399995803833
1773230424022114600,7.640114501953125,-10.559999465942383,18.119998931884766,-12.420000076293945
1773230424038104800,7.656104736328125,-10.4399995803833,17.81999969482422,-12.65999984741211
1773230424054127900,7.6721279296875,-10.4399995803833,18,-12.420000076293945
1773230424070119200,7.688119140625,-10.260000228881836,18.53999900817871,-12
1773230424086108700,7.704108642578125,-10.979999542236328,18.420000076293945,-11.75999927520752
1773230424102101800,7.720101806640625,-11.09999942779541,18,-12
1773230424118122000,7.7361220703125,-10.859999656677246,17.639999389648438,-12.420000076293945
1773230424134112800,7.75211279296875,-10.4399995803833,17.219999313354492,-12.779999732971191
1773230424150105000,7.76810498046875,-10.139999389648438,17.459999084472656,-12.359999656677246
1773230424166127000,7.784127197265625,-10.5,17.69999885559082,-11.75999927520752
1773230424182118000,7.800117919921875,-10.260000228881836,17.760000228881836,-11.880000114440918
1773230424198109400,7.816109375,-9.899999618530273,18.119998931884766,-11.75999927520752
1773230424214099200,7.83209912109375,-10.4399995803833,18.119998931884766,-12.899999618530273
1773230424230122800,7.848122802734375,-10.920000076293945,17.219999313354492,-13.739999771118164
1773230424246114300,7.8641142578125,-11.219999313354492,17.579999923706055,-12.239999771118164
1773230424262104800,7.880104736328125,-10.979999542236328,18.119998931884766,-11.039999961853027
1773230424278125300,7.896125244140625,-11.15999984741211,17.459999084472656,-11.639999389648438
1773230424294119000,7.912118896484375,-11.279999732971191,17.81999969482422,-11.880000114440918
1773230424310110000,7.92810986328125,-10.679999351501465,18.239999771118164,-11.880000114440918
1773230424326100000,7.944099853515625,-11.039999961853027,18.239999771118164,-12.179999351501465
1773230424342123300,7.960123291015625,-11.34000015258789,18.119998931884766,-11.880000114440918
1773230424358111500,7.976111572265625,-11.34000015258789,18,-12.65999984741211
1773230424374102300,7.992102294921875,-10.800000190734863,18.059999465942383,-13.25999927520752
1773230424390123800,8.008123779296875,-10.260000228881836,18.600000381469727,-12.239999771118164
1773230424406115800,8.02411572265625,-10.979999542236328,18.719999313354492,-12.239999771118164
1773230424422108200,8.040108154296876,-11.15999984741211,18.119998931884766,-12.539999961853027
1773230424438099200,8.05609912109375,-10.859999656677246,18.119998931884766,-11.639999389648438
1773230424454121000,8.072120849609375,-9.899999618530273,18.239999771118164,-11.519999504089355
1773230424470114000,8.088114013671875,-9.179999351501465,17.579999923706055,-11.34000015258789
1773230424486102000,8.10410205078125,-10.5,17.399999618530273,-11.34000015258789
1773230424502126600,8.120126708984374,-10.739999771118164,18.059999465942383,-12
1773230424518116600,8.13611669921875,-10.019999504089355,17.940000534057617,-12.420000076293945
1773230424534107400,8.152107421875,-10.319999694824219,18.65999984741211,-12.059999465942383
1773230424550129200,8.168129150390625,-11.279999732971191,18.600000381469727,-11.579999923706055
1773230424566120400,8.184120361328125,-11.279999732971191,17.69999885559082,-11.519999504089355
1773230424582111500,8.200111572265625,-11.09999942779541,17.639999389648438,-11.579999923706055
1773230424598103300,8.216103271484375,-11.579999923706055,17.81999969482422,-11.819999694824219
1773230424614122800,8.232122802734375,-10.920000076293945,18.299999237060547,-12.119999885559082
1773230424630116400,8.248116455078126,-10.559999465942383,18.299999237060547,-12.65999984741211
1773230424646108400,8.2641083984375,-10.800000190734863,18.420000076293945,-12.179999351501465
1773230424662097200,8.28009716796875,-10.559999465942383,18.65999984741211,-11.9399995803833
1773230424678120400,8.296120361328125,-10.319999694824219,18.600000381469727,-12.779999732971191
1773230424694111500,8.312111572265625,-10.079999923706055,17.940000534057617,-12.420000076293945
1773230424710102000,8.32810205078125,-10.5,17.579999923706055,-12.479999542236328
1773230424726124800,8.344124755859376,-11.09999942779541,17.760000228881836,-12.479999542236328
1773230424742114000,8.360114013671875,-11.09999942779541,17.219999313354492,-11.579999923706055
1773230424758106000,8.376106201171876,-11.039999961853027,17.520000457763672,-11.579999923706055
1773230424774125800,8.392125732421874,-10.859999656677246,17.34000015258789,-12.119999885559082
1773230424790120200,8.4081201171875,-10.739999771118164,17.520000457763672,-12.300000190734863
1773230424806108700,8.424108642578124,-11.09999942779541,18,-12.779999732971191
1773230424822100000,8.440099853515624,-11.279999732971191,17.15999984741211,-12.899999618530273
1773230424838122800,8.456122802734376,-10.5,17.69999885559082,-12.59999942779541
1773230424854113300,8.47211328125,-10.260000228881836,18.779998779296875,-12.179999351501465
1773230424870106600,8.488106689453126,-10.679999351501465,18.719999313354492,-12.059999465942383
1773230424886127400,8.50412744140625,-11.09999942779541,18.479999542236328,-12.65999984741211
1773230424902116900,8.520116943359374,-10.739999771118164,18.479999542236328,-12.539999961853027
1773230424918109200,8.536109130859375,-10.319999694824219,18.420000076293945,-12.420000076293945
1773230424934099000,8.552098876953124,-10.800000190734863,17.760000228881836,-12.59999942779541
1773230424950122000,8.5681220703125,-10.920000076293945,17.639999389648438,-12.59999942779541
1773230424966112500,8.584112548828125,-10.979999542236328,17.760000228881836,-12.300000190734863
1773230424982103600,8.600103515625,-10.800000190734863,18.35999870300293,-12.239999771118164
1773230424998124800,8.616124755859374,-10.619999885559082,18.239999771118164,-12.420000076293945
1773230425014115600,8.632115478515624,-11.039999961853027,17.399999618530273,-12.479999542236328
1773230425030109200,8.648109130859375,-10.4399995803833,18,-12.300000190734863
1773230425046100200,8.664100341796875,-10.5,18.420000076293945,-11.639999389648438
1773230425062122800,8.680122802734376,-11.09999942779541,18.18000030517578,-11.639999389648438
1773230425078112300,8.6961123046875,-10.619999885559082,17.760000228881836,-11.819999694824219
1773230425094103800,8.712103759765625,-9.779999732971191,17.81999969482422,-11.15999984741211
1773230425110126600,8.728126708984375,-9.420000076293945,18.18000030517578,-11.519999504089355
1773230425126118700,8.74411865234375,-10.260000228881836,18.239999771118164,-12.359999656677246
1773230425142107400,8.760107421875,-10.5,18.600000381469727,-12.300000190734863
1773230425158098200,8.77609814453125,-10.739999771118164,18.719999313354492,-12.779999732971191
1773230425174119200,8.792119140625,-11.399999618530273,18.719999313354492,-12.960000038146973
1773230425190112300,8.8081123046875,-11.34000015258789,18.959999084472656,-12.65999984741211
1773230425206103600,8.824103515625,-10.800000190734863,18.600000381469727,-12.059999465942383
1773230425222124800,8.840124755859375,-10.800000190734863,18.239999771118164,-11.519999504089355
1773230425238115000,8.856114990234374,-11.460000038146973,19.079999923706055,-11.579999923706055
1773230425254107600,8.872107666015625,-10.979999542236328,19.3799991607666,-12.300000190734863
1773230425270100200,8.888100341796875,-10.319999694824219,19.020000457763672,-12.960000038146973
1773230425286120400,8.904120361328125,-10.139999389648438,18.65999984741211,-12.300000190734863
1773230425302112800,8.92011279296875,-10.260000228881836,18.239999771118164,-11.699999809265137
1773230425318102800,8.936102783203125,-10.800000190734863,18.119998931884766,-11.880000114440918
1773230425334123500,8.95212353515625,-10.679999351501465,18.479999542236328,-11.639999389648438
1773230425350115800,8.96811572265625,-10.5,18.600000381469727,-12.119999885559082
1773230425366106400,8.9841064453125,-10.920000076293945,18.420000076293945,-12.119999885559082
1773230425382098700,9.0000986328125,-10.920000076293945,18.65999984741211,-11.219999313354492
1773230425398118100,9.0161181640625,-10.739999771118164,18.420000076293945,-11.75999927520752
1773230425414110700,9.03211083984375,-10.260000228881836,18.53999900817871,-11.819999694824219
1773230425430101800,9.048101806640625,-9.779999732971191,18.65999984741211,-11.460000038146973
1773230425446124800,9.064124755859375,-10.079999923706055,18.059999465942383,-11.9399995803833
1773230425462114300,9.0801142578125,-10.260000228881836,18.600000381469727,-12.300000190734863
1773230425478105000,9.09610498046875,-10.079999923706055,19.3799991607666,-12.059999465942383
1773230425494097400,9.112097412109375,-10.019999504089355,18.779998779296875,-11.579999923706055
1773230425510120400,9.128120361328126,-9.779999732971191,19.079999923706055,-11.519999504089355
1773230425526110200,9.144110107421875,-9.899999618530273,19.260000228881836,-12
1773230425542101500,9.1601015625,-10.619999885559082,18.779998779296875,-11.9399995803833
1773230425558121700,9.176121826171874,-10.559999465942383,18.719999313354492,-11.699999809265137
1773230425574113000,9.192113037109374,-10.800000190734863,18.35999870300293,-11.460000038146973
1773230425590105900,9.20810595703125,-10.800000190734863,18.899999618530273,-11.039999961853027
1773230425606126800,9.224126953125,-11.039999961853027,19.19999885559082,-11.279999732971191
1773230425622117600,9.24011767578125,-11.279999732971191,19.020000457763672,-11.519999504089355
1773230425638110700,9.25611083984375,-10.4399995803833,18.84000015258789,-10.979999542236328
1773230425654099000,9.272098876953125,-10.199999809265137,18.959999084472656,-11.039999961853027
1773230425670123500,9.28812353515625,-10.4399995803833,19.439998626708984,-11.519999504089355
1773230425686114000,9.304114013671875,-10.380000114440918,19.3799991607666,-11.399999618530273
1773230425702104800,9.320104736328124,-10.139999389648438,19.439998626708984,-11.699999809265137
1773230425718126800,9.336126953125,-10.559999465942383,19.020000457763672,-11.279999732971191
1773230425734116400,9.352116455078125,-11.15999984741211,19.020000457763672,-10.559999465942383
1773230425750108700,9.368108642578125,-10.859999656677246,18.959999084472656,-10.319999694824219
1773230425766098400,9.384098388671875,-10.679999351501465,19.139999389648438,-10.260000228881836
1773230425782121500,9.40012158203125,-10.559999465942383,19.3799991607666,-10.679999351501465
1773230425798112800,9.41611279296875,-9.779999732971191,18.479999542236328,-10.979999542236328
1773230425814102800,9.432102783203124,-9.779999732971191,19.079999923706055,-11.039999961853027
1773230425830094300,9.44809423828125,-10.739999771118164,19.979999542236328,-10.739999771118164
1773230425846116900,9.464116943359375,-10.800000190734863,19.619998931884766,-11.039999961853027
1773230425862107600,9.480107666015625,-10.559999465942383,19.31999969482422,-11.34000015258789
1773230425878100000,9.496099853515625,-10.800000190734863,19.619998931884766,-11.219999313354492
1773230425894119400,9.512119384765626,-10.979999542236328,19.559999465942383,-10.979999542236328
1773230425918106600,9.536106689453124,-10.079999923706055,19.020000457763672,-10.5
1773230425934099200,9.55209912109375,-9.179999351501465,19.31999969482422,-11.039999961853027
1773230425950119200,9.568119140625,-9.59999942779541,19.31999969482422,-11.15999984741211
1773230425966111500,9.584111572265625,-10.260000228881836,19.439998626708984,-10.979999542236328
1773230425982102000,9.60010205078125,-10.319999694824219,19.559999465942383,-10.920000076293945
1773230425998123800,9.616123779296874,-9.59999942779541,19.559999465942383,-11.279999732971191
1773230426014116000,9.6321162109375,-9.65999984741211,19.139999389648438,-11.399999618530273
1773230426030106600,9.648106689453124,-10.619999885559082,18.719999313354492,-11.09999942779541
1773230426046097000,9.664096923828126,-10.920000076293945,18.479999542236328,-11.34000015258789
1773230426062120200,9.6801201171875,-10.4399995803833,18.239999771118164,-11.460000038146973
1773230426078109200,9.696109130859375,-10.380000114440918,17.8799991607666,-11.15999984741211
1773230426094102300,9.712102294921875,-10.380000114440918,18.299999237060547,-10.800000190734863
1773230426110125000,9.728125,-9.960000038146973,19.139999389648438,-10.920000076293945
1773230426126114000,9.744114013671876,-10.019999504089355,18.959999084472656,-11.639999389648438
1773230426142107000,9.76010693359375,-10.380000114440918,18.239999771118164,-11.399999618530273
1773230426158098200,9.77609814453125,-10.079999923706055,17.579999923706055,-11.09999942779541
1773230426174118700,9.79211865234375,-10.380000114440918,18.600000381469727,-11.279999732971191
1773230426190109000,9.80810888671875,-10.800000190734863,18.959999084472656,-11.039999961853027
1773230426206102300,9.824102294921875,-11.09999942779541,18.899999618530273,-10.859999656677246
1773230426222121500,9.84012158203125,-10.739999771118164,19.19999885559082,-11.09999942779541
1773230426238112800,9.85611279296875,-10.079999923706055,18.65999984741211,-10.739999771118164
1773230426254105300,9.872105224609374,-10.4399995803833,18.65999984741211,-10.019999504089355
1773230426270097200,9.88809716796875,-10.139999389648438,18.779998779296875,-10.380000114440918
1773230426286118000,9.904117919921875,-10.139999389648438,18.299999237060547,-10.4399995803833
1773230426302108400,9.9201083984375,-10.739999771118164,18.239999771118164,-10.079999923706055
1773230426318101800,9.936101806640625,-10.859999656677246,18.899999618530273,-10.079999923706055
1773230426334122000,9.9521220703125,-11.219999313354492,19.079999923706055,-10.260000228881836
1773230426350113800,9.96811376953125,-11.279999732971191,18.959999084472656,-9.960000038146973
1773230426366105900,9.98410595703125,-10.679999351501465,18.239999771118164,-9.960000038146973
1773230426382096100,10.00009619140625,-10.260000228881836,18.059999465942383,-10.4399995803833
1773230426398118000,10.016117919921875,-9.960000038146973,18.600000381469727,-10.139999389648438
1773230426414108000,10.03210791015625,-9.779999732971191,18.119998931884766,-10.139999389648438
1773230426430101200,10.048101318359375,-9.539999961853027,17.69999885559082,-10.739999771118164
1773230426446122800,10.064122802734374,-9.479999542236328,17.940000534057617,-10.319999694824219
1773230426462113300,10.08011328125,-9.779999732971191,18.239999771118164,-10.139999389648438
1773230426478104800,10.096104736328124,-10.079999923706055,17.940000534057617,-10.739999771118164
1773230426494096000,10.112095947265624,-10.380000114440918,18.119998931884766,-10.5
1773230426510119000,10.128118896484375,-10.260000228881836,18.239999771118164,-10.4399995803833
1773230426526108700,10.144108642578125,-10.199999809265137,17.760000228881836,-10.619999885559082
1773230426542098200,10.16009814453125,-10.319999694824219,17.8799991607666,-10.260000228881836
1773230426558121200,10.176121337890624,-9.719999313354492,17.69999885559082,-10.5
1773230426574111700,10.19211181640625,-9.779999732971191,17.579999923706055,-10.679999351501465
1773230426590104300,10.208104248046874,-10.199999809265137,18.600000381469727,-10.319999694824219
1773230426606124300,10.224124267578125,-9.300000190734863,19.439998626708984,-10.5
1773230426622115000,10.240114990234375,-9.65999984741211,19.020000457763672,-10.859999656677246
1773230426638106600,10.256106689453125,-9.779999732971191,18.479999542236328,-10.619999885559082
1773230426654100000,10.272099853515625,-9.119999885559082,18.53999900817871,-9.84000015258789
1773230426670121200,10.288121337890624,-9.300000190734863,18.719999313354492,-10.199999809265137
1773230426686113300,10.30411328125,-9.119999885559082,18.65999984741211,-10.019999504089355
1773230426702102000,10.32010205078125,-9.59999942779541,18.299999237060547,-9.84000015258789
1773230426718125000,10.336125,-9.84000015258789,17.760000228881836,-10.559999465942383
1773230426734114800,10.35211474609375,-9.300000190734863,16.979999542236328,-10.4399995803833
1773230426750108200,10.368108154296875,-9.539999961853027,16.799999237060547,-10.260000228881836
1773230426766098200,10.38409814453125,-9.779999732971191,17.399999618530273,-10.4399995803833
1773230426782119700,10.40011962890625,-9.119999885559082,18,-11.09999942779541
1773230426798111000,10.416111083984376,-9.239999771118164,17.81999969482422,-11.34000015258789
1773230426814101800,10.432101806640626,-10.079999923706055,18.059999465942383,-10.979999542236328
1773230426830124500,10.44812451171875,-10.019999504089355,18.35999870300293,-10.679999351501465
1773230426846115800,10.46411572265625,-9.960000038146973,17.03999900817871,-10.4399995803833
1773230426862106000,10.480106201171875,-10.4399995803833,17.279998779296875,-10.139999389648438
1773230426878096000,10.496095947265625,-10.4399995803833,17.520000457763672,-10.079999923706055
1773230426894117600,10.51211767578125,-10.079999923706055,17.15999984741211,-10.5
1773230426910110500,10.5281103515625,-10.260000228881836,17.579999923706055,-10.380000114440918
1773230426926102500,10.5441025390625,-10.5,17.279998779296875,-10.079999923706055
1773230426942123000,10.560123046875,-10.260000228881836,17.03999900817871,-10.4399995803833
1773230426958114300,10.5761142578125,-10.260000228881836,17.8799991607666,-10.559999465942383
1773230426974104300,10.592104248046875,-9.960000038146973,18.239999771118164,-10.5
1773230426990097200,10.60809716796875,-9.65999984741211,17.940000534057617,-10.139999389648438
1773230427006118700,10.62411865234375,-10.019999504089355,18.239999771118164,-9.59999942779541
1773230427022109700,10.640109619140626,-9.899999618530273,18.35999870300293,-10.079999923706055
1773230427038100500,10.6561005859375,-9.479999542236328,18.18000030517578,-10.199999809265137
1773230427054123000,10.672123046875,-9.179999351501465,18.239999771118164,-9.719999313354492
1773230427070115600,10.688115478515625,-9.059999465942383,18.119998931884766,-10.139999389648438
1773230427086103800,10.704103759765625,-9.059999465942383,17.81999969482422,-10.739999771118164
1773230427102096400,10.720096435546875,-8.9399995803833,17.8799991607666,-11.279999732971191
1773230427118118700,10.73611865234375,-9.65999984741211,17.8799991607666,-10.739999771118164
1773230427134107100,10.752107177734375,-9.84000015258789,17.639999389648438,-9.960000038146973
1773230427150101500,10.7681015625,-9.84000015258789,17.8799991607666,-10.199999809265137
1773230427166122200,10.784122314453125,-9.719999313354492,18.119998931884766,-10.079999923706055
1773230427182113500,10.800113525390625,-9.479999542236328,18.35999870300293,-9.719999313354492
1773230427198104000,10.81610400390625,-10.199999809265137,19.079999923706055,-9.84000015258789
1773230427214097000,10.832096923828125,-9.779999732971191,18.53999900817871,-10.139999389648438
1773230427230116900,10.848116943359376,-9.779999732971191,17.219999313354492,-9.899999618530273
1773230427246108200,10.864108154296876,-10.739999771118164,17.100000381469727,-10.139999389648438
1773230427262098400,10.880098388671875,-10.019999504089355,17.579999923706055,-10.5
1773230427278121000,10.896120849609375,-9.59999942779541,17.81999969482422,-10.380000114440918
1773230427294113500,10.912113525390625,-10.5,17.69999885559082,-10.260000228881836
1773230427310104000,10.92810400390625,-10.619999885559082,17.940000534057617,-10.139999389648438
1773230427326124300,10.944124267578125,-10.739999771118164,17.760000228881836,-10.5
1773230427342116000,10.9601162109375,-10.920000076293945,17.639999389648438,-10.260000228881836
1773230427358107100,10.976107177734375,-10.019999504089355,17.940000534057617,-10.319999694824219
1773230427374098000,10.992097900390625,-9.179999351501465,18.479999542236328,-10.559999465942383
1773230427390122200,11.008122314453125,-9.719999313354492,18.479999542236328,-10.139999389648438
1773230427406113300,11.02411328125,-9.779999732971191,17.639999389648438,-10.739999771118164
1773230427422102800,11.040102783203125,-9.84000015258789,17.639999389648438,-10.920000076293945
1773230427438094600,11.056094482421875,-9.65999984741211,18,-9.960000038146973
1773230427454114800,11.07211474609375,-9.719999313354492,18.059999465942383,-9.779999732971191
1773230427470105600,11.088105712890625,-10.559999465942383,18.779998779296875,-9.719999313354492
1773230427485990000,11.103989990234375,-10.139999389648438,19.439998626708984,-9.65999984741211
1773230427502131200,11.120131103515625,-9.960000038146973,18.65999984741211,-9.539999961853027
1773230427518122800,11.136122802734375,-10.319999694824219,18.420000076293945,-9.359999656677246
1773230427534113800,11.15211376953125,-10.260000228881836,18.53999900817871,-9.179999351501465
1773230427550107000,11.16810693359375,-9.960000038146973,18.18000030517578,-9.479999542236328
1773230427566126800,11.184126953125,-10.380000114440918,18.420000076293945,-9.779999732971191
1773230427582119000,11.200118896484375,-10.380000114440918,18.479999542236328,-9.960000038146973
1773230427598108700,11.216108642578124,-9.899999618530273,18.18000030517578,-9.719999313354492
1773230427614130700,11.232130615234375,-9.479999542236328,18.53999900817871,-9.779999732971191
1773230427630122000,11.2481220703125,-9.420000076293945,18.779998779296875,-9.84000015258789
1773230427646113500,11.264113525390625,-10.199999809265137,18.719999313354492,-9.179999351501465
1773230427662133200,11.28013330078125,-10.800000190734863,19.139999389648438,-9.65999984741211
1773230427678125000,11.296125,-10.920000076293945,18.600000381469727,-10.079999923706055
1773230427694118000,11.312117919921874,-11.039999961853027,17.760000228881836,-10.079999923706055
1773230427710110000,11.32810986328125,-11.09999942779541,17.81999969482422,-10.380000114440918
1773230427726130000,11.3441298828125,-11.279999732971191,18.420000076293945,-10.559999465942383
1773230427742121200,11.360121337890625,-11.15999984741211,19.31999969482422,-9.960000038146973
1773230427758112800,11.37611279296875,-10.679999351501465,19.5,-9.719999313354492
1773230427774133200,11.39213330078125,-10.679999351501465,19.31999969482422,-10.079999923706055
1773230427790126800,11.408126953125,-11.460000038146973,20.15999984741211,-9.899999618530273
1773230427806115800,11.42411572265625,-11.639999389648438,20.219999313354492,-8.880000114440918
1773230427822109200,11.440109130859375,-11.09999942779541,19.260000228881836,-8.639999389648438
1773230427838128600,11.456128662109375,-10.859999656677246,19.079999923706055,-9.59999942779541
1773230427854121500,11.47212158203125,-10.739999771118164,19.559999465942383,-10.019999504089355
1773230427870112500,11.488112548828125,-10.920000076293945,19.559999465942383,-10.199999809265137
1773230427886134500,11.504134521484374,-10.739999771118164,19.139999389648438,-9.779999732971191
1773230427902123800,11.520123779296876,-10.5,18.959999084472656,-8.579999923706055
1773230427918116400,11.536116455078124,-10.800000190734863,19.079999923706055,-8.399999618530273
1773230427934106000,11.552106201171876,-10.4399995803833,19.19999885559082,-9.359999656677246
1773230427950130700,11.568130615234375,-10.979999542236328,19.260000228881836,-9.59999942779541
1773230427966121500,11.58412158203125,-11.519999504089355,19.020000457763672,-9.899999618530273
1773230427982110700,11.60011083984375,-11.279999732971191,18.959999084472656,-10.619999885559082
1773230427998131200,11.616131103515626,-11.279999732971191,19.31999969482422,-10.619999885559082
1773230428014123800,11.632123779296874,-11.039999961853027,19.439998626708984,-10.4399995803833
1773230428030117000,11.6481171875,-10.920000076293945,19.020000457763672,-9.65999984741211
1773230428046106000,11.664106201171874,-11.039999961853027,18.84000015258789,-9.719999313354492
1773230428062127900,11.6801279296875,-11.09999942779541,18.899999618530273,-10.079999923706055
1773230428078118400,11.696118408203125,-10.979999542236328,19.559999465942383,-9.479999542236328
1773230428094109400,11.712109375,-11.399999618530273,20.03999900817871,-9.420000076293945
1773230428110132700,11.7281328125,-11.9399995803833,19.68000030517578,-9.65999984741211
1773230428126124000,11.7441240234375,-11.460000038146973,19.3799991607666,-9.59999942779541
1773230428142114300,11.7601142578125,-10.920000076293945,19.439998626708984,-9.179999351501465
1773230428158105900,11.77610595703125,-10.619999885559082,19.68000030517578,-8.699999809265137
1773230428174128400,11.79212841796875,-10.380000114440918,19.559999465942383,-9.300000190734863
1773230428198112800,11.81611279296875,-10.920000076293945,19.5,-9.179999351501465
1773230428214105000,11.83210498046875,-10.260000228881836,19.439998626708984,-9.84000015258789
1773230428230125800,11.848125732421876,-10.5,18.899999618530273,-9.65999984741211
1773230428246119400,11.864119384765624,-10.679999351501465,19.439998626708984,-8.880000114440918
1773230428262108700,11.880108642578126,-10.979999542236328,19.260000228881836,-9.059999465942383
1773230428278131200,11.896131103515625,-11.519999504089355,19.139999389648438,-9.300000190734863
1773230428294123800,11.912123779296875,-11.460000038146973,19.68000030517578,-9.119999885559082
1773230428310115600,11.928115478515625,-11.15999984741211,19.260000228881836,-9.300000190734863
1773230428326134300,11.94413427734375,-10.739999771118164,19.19999885559082,-10.079999923706055
1773230428342126300,11.960126220703126,-10.619999885559082,19.19999885559082,-10.139999389648438
1773230428358117000,11.9761171875,-11.34000015258789,18.959999084472656,-9.65999984741211
1773230428374109700,11.992109619140624,-11.34000015258789,18.779998779296875,-9.65999984741211
1773230428390132700,12.0081328125,-10.319999694824219,19.19999885559082,-9.420000076293945
1773230428406120700,12.02412060546875,-10.319999694824219,19.68000030517578,-9.359999656677246
1773230428422112800,12.04011279296875,-11.039999961853027,19.920000076293945,-9.84000015258789
1773230428438133500,12.056133544921876,-11.15999984741211,19.5,-9.84000015258789
1773230428454125300,12.072125244140626,-10.800000190734863,18.84000015258789,-9.059999465942383
1773230428470118400,12.088118408203124,-11.09999942779541,18.899999618530273,-9.119999885559082
1773230428486108200,12.104108154296876,-11.519999504089355,19.260000228881836,-9.119999885559082
1773230428502129700,12.120129638671875,-10.859999656677246,19.799999237060547,-9.539999961853027
1773230428518120400,12.136120361328125,-10.739999771118164,19.619998931884766,-10.139999389648438
1773230428534111500,12.152111572265625,-11.15999984741211,19.020000457763672,-9.59999942779541
1773230428550136300,12.16813623046875,-10.920000076293945,19.439998626708984,-9.65999984741211
1773230428566126000,12.1841259765625,-10.920000076293945,19.3799991607666,-9.779999732971191
1773230428582117400,12.200117431640624,-10.859999656677246,19.260000228881836,-9.479999542236328
1773230428598107100,12.216107177734376,-11.219999313354492,18.959999084472656,-9.899999618530273
1773230428614129700,12.232129638671875,-11.579999923706055,18.959999084472656,-10.139999389648438
1773230428630122200,12.248122314453125,-11.34000015258789,19.559999465942383,-9.539999961853027
1773230428646112500,12.264112548828125,-11.039999961853027,20.03999900817871,-9.779999732971191
1773230428662132700,12.2801328125,-11.219999313354492,19.68000030517578,-10.079999923706055
1773230428678125300,12.296125244140624,-11.699999809265137,19.3799991607666,-9.479999542236328
1773230428694116400,12.312116455078124,-11.519999504089355,19.31999969482422,-9.420000076293945
1773230428710108700,12.328108642578124,-10.859999656677246,19.19999885559082,-10.260000228881836
1773230428726130200,12.344130126953125,-10.679999351501465,20.100000381469727,-9.779999732971191
1773230428742119200,12.360119140625,-10.979999542236328,20.03999900817871,-9.179999351501465
1773230428758110200,12.376110107421875,-10.859999656677246,19.5,-9.359999656677246
1773230428774134300,12.39213427734375,-10.4399995803833,19.3799991607666,-9.65999984741211
1773230428790125600,12.40812548828125,-10.800000190734863,19.31999969482422,-9.719999313354492
1773230428806114600,12.424114501953126,-11.219999313354492,19.139999389648438,-9.179999351501465
1773230428822105900,12.44010595703125,-11.34000015258789,18.479999542236328,-9
1773230428838128600,12.456128662109375,-11.039999961853027,18.65999984741211,-8.699999809265137
1773230428854119400,12.472119384765625,-10.979999542236328,19.31999969482422,-8.760000228881836
1773230428870110000,12.48810986328125,-11.579999923706055,19.619998931884766,-9.719999313354492
1773230428886131700,12.504131591796876,-11.219999313354492,19.559999465942383,-9.59999942779541
1773230428902124000,12.5201240234375,-11.09999942779541,19.619998931884766,-9.239999771118164
1773230428918113300,12.53611328125,-11.34000015258789,20.100000381469727,-9.59999942779541
1773230428934105000,12.55210498046875,-11.09999942779541,20.520000457763672,-9.179999351501465
1773230428950129700,12.568129638671875,-10.5,19.619998931884766,-9.59999942779541
1773230428966119000,12.584118896484375,-10.5,19.139999389648438,-10.019999504089355
1773230428982109700,12.600109619140625,-11.639999389648438,19.68000030517578,-9.119999885559082
1773230428998132200,12.61613232421875,-11.639999389648438,19.739999771118164,-9.59999942779541
1773230429014121500,12.63212158203125,-10.739999771118164,19.68000030517578,-10.319999694824219
1773230429030114600,12.648114501953126,-10.4399995803833,19.260000228881836,-9.65999984741211
1773230429046104000,12.66410400390625,-10.5,19.139999389648438,-9.359999656677246
1773230429062127400,12.68012744140625,-10.739999771118164,19.31999969482422,-9.359999656677246
1773230429078117000,12.6961171875,-11.039999961853027,19.920000076293945,-9.059999465942383
1773230429094110500,12.7121103515625,-11.219999313354492,19.619998931884766,-9.420000076293945
1773230429110131700,12.728131591796876,-10.619999885559082,18.479999542236328,-9.719999313354492
1773230429126121200,12.744121337890626,-10.260000228881836,18.420000076293945,-9.300000190734863
1773230429142112000,12.760112060546875,-10.619999885559082,18.719999313354492,-9.420000076293945
1773230429158105000,12.77610498046875,-10.559999465942383,18.899999618530273,-9.84000015258789
1773230429174125800,12.792125732421875,-11.219999313354492,18.420000076293945,-9.899999618530273
1773230429190119400,12.808119384765625,-11.279999732971191,18.600000381469727,-10.079999923706055
1773230429206110000,12.82410986328125,-11.039999961853027,19.260000228881836,-9.59999942779541
1773230429222129400,12.84012939453125,-11.279999732971191,19.020000457763672,-9.420000076293945
1773230429238122500,12.85612255859375,-10.979999542236328,19.559999465942383,-9.779999732971191
1773230429254111700,12.87211181640625,-11.15999984741211,19.85999870300293,-9.359999656677246
1773230429270106400,12.8881064453125,-10.739999771118164,19.3799991607666,-9.300000190734863
1773230429286126800,12.904126953125,-10.260000228881836,19.020000457763672,-10.019999504089355
1773230429302115300,12.920115234375,-10.5,19.079999923706055,-10.199999809265137
1773230429318107400,12.936107421875,-10.739999771118164,19.19999885559082,-9.59999942779541
1773230429334130000,12.9521298828125,-10.979999542236328,19.5,-9.479999542236328
1773230429350121700,12.968121826171876,-10.559999465942383,19.68000030517578,-9.539999961853027
1773230429366111000,12.984111083984375,-10.979999542236328,19.19999885559082,-9.179999351501465
1773230429382102300,13.000102294921875,-11.639999389648438,18.479999542236328,-8.9399995803833
1773230429398126300,13.016126220703125,-11.579999923706055,18.719999313354492,-9.179999351501465
1773230429414115600,13.032115478515625,-11.639999389648438,19.3799991607666,-9.179999351501465
1773230429430108700,13.048108642578125,-11.34000015258789,19.3799991607666,-9.479999542236328
1773230429446129700,13.064129638671876,-10.619999885559082,20.03999900817871,-9.65999984741211
1773230429462121200,13.080121337890626,-10.739999771118164,20.279998779296875,-9.119999885559082
1773230429478111200,13.096111328125,-11.34000015258789,19.85999870300293,-9.119999885559082
1773230429494134000,13.112134033203125,-11.279999732971191,19.3799991607666,-9.179999351501465
1773230429510125000,13.128125,-11.039999961853027,18.719999313354492,-10.079999923706055
1773230429526114800,13.14411474609375,-10.139999389648438,18.299999237060547,-9.960000038146973
1773230429542105600,13.160105712890624,-9.960000038146973,18.479999542236328,-9.779999732971191
1773230429558128400,13.17612841796875,-10.5,19.260000228881836,-10.019999504089355
1773230429574119200,13.192119140625,-10.800000190734863,19.439998626708984,-9.779999732971191
1773230429590111000,13.208111083984376,-11.279999732971191,19.139999389648438,-10.559999465942383
1773230429606101200,13.224101318359375,-11.75999927520752,18.899999618530273,-10.739999771118164
1773230429622123000,13.240123046875,-11.519999504089355,18.779998779296875,-9.960000038146973
1773230429638114800,13.25611474609375,-11.399999618530273,19.5,-9.539999961853027
1773230429654106400,13.2721064453125,-11.219999313354492,19.799999237060547,-10.199999809265137
1773230429670128000,13.288128173828126,-10.979999542236328,18.959999084472656,-10.380000114440918
1773230429686119000,13.304118896484376,-10.5,19.19999885559082,-10.260000228881836
1773230429702112300,13.3201123046875,-10.559999465942383,19.739999771118164,-10.319999694824219
1773230429718132200,13.33613232421875,-11.699999809265137,19.5,-10.4399995803833
1773230429734123000,13.352123046875,-11.519999504089355,19.31999969482422,-9.960000038146973
1773230429750116000,13.3681162109375,-11.34000015258789,19.559999465942383,-9.300000190734863
1773230429766104300,13.384104248046874,-10.979999542236328,19.799999237060547,-9.84000015258789
1773230429782127600,13.400127685546876,-10.5,19.799999237060547,-10.139999389648438
1773230429798117000,13.4161171875,-11.399999618530273,19.920000076293945,-9.779999732971191
1773230429814109200,13.432109130859375,-11.519999504089355,20.03999900817871,-9.960000038146973
1773230429830133200,13.44813330078125,-10.800000190734863,19.3799991607666,-10.5
1773230429846123000,13.464123046875,-11.039999961853027,18.119998931884766,-10.199999809265137
1773230429862113800,13.48011376953125,-10.859999656677246,18.239999771118164,-10.319999694824219
1773230429878104600,13.4961044921875,-10.380000114440918,18.719999313354492,-10.559999465942383
1773230429894125800,13.512125732421875,-11.15999984741211,19.020000457763672,-10.380000114440918
1773230429910118400,13.528118408203126,-12,19.139999389648438,-9.719999313354492
1773230429926111000,13.544111083984374,-11.460000038146973,19.020000457763672,-9.359999656677246
1773230429942131500,13.56013134765625,-11.15999984741211,19.260000228881836,-9.65999984741211
1773230429958121000,13.576120849609374,-11.75999927520752,19.439998626708984,-9.539999961853027
1773230429974112800,13.59211279296875,-11.219999313354492,19.19999885559082,-9.479999542236328
1773230429990105600,13.608105712890625,-11.519999504089355,19.079999923706055,-9.420000076293945
1773230430006127000,13.624127197265626,-12.239999771118164,19.079999923706055,-9.420000076293945
1773230430022118000,13.640117919921876,-12.239999771118164,19.3799991607666,-10.019999504089355
1773230430038108400,13.6561083984375,-12.300000190734863,19.439998626708984,-10.619999885559082
1773230430054130700,13.672130615234375,-12.479999542236328,19.559999465942383,-10.199999809265137
1773230430070122000,13.6881220703125,-12.420000076293945,19.68000030517578,-10.380000114440918
1773230430086111000,13.704111083984374,-12.119999885559082,18.299999237060547,-10.859999656677246
1773230430102103300,13.720103271484374,-11.399999618530273,17.8799991607666,-10.619999885559082
1773230430118124500,13.73612451171875,-11.279999732971191,18.65999984741211,-10.679999351501465
1773230430134117400,13.752117431640626,-11.279999732971191,19.139999389648438,-10.559999465942383
1773230430150109200,13.768109130859376,-11.75999927520752,19.139999389648438,-10.319999694824219
1773230430166129700,13.784129638671875,-12,18.84000015258789,-10.559999465942383
1773230430182120200,13.8001201171875,-11.399999618530273,19.020000457763672,-10.319999694824219
1773230430198112300,13.8161123046875,-11.34000015258789,18.719999313354492,-10.019999504089355
1773230430214102500,13.8321025390625,-12.119999885559082,18.299999237060547,-9.59999942779541
1773230430230126300,13.848126220703126,-12.300000190734863,19.19999885559082,-9.719999313354492
1773230430246116900,13.864116943359376,-12,19.260000228881836,-10.079999923706055
1773230430262107600,13.880107666015626,-11.880000114440918,18.899999618530273,-10.139999389648438
1773230430278127600,13.896127685546874,-11.579999923706055,19.559999465942383,-10.559999465942383
1773230430294121200,13.912121337890625,-11.819999694824219,20.279998779296875,-10.019999504089355
1773230430310112300,13.9281123046875,-11.819999694824219,19.799999237060547,-9.479999542236328
1773230430326102000,13.94410205078125,-11.579999923706055,18.600000381469727,-9.84000015258789
1773230430342124500,13.96012451171875,-11.34000015258789,18,-9.899999618530273
1773230430358117400,13.976117431640626,-11.09999942779541,18.420000076293945,-9.84000015258789
1773230430374106600,13.992106689453125,-11.219999313354492,19.079999923706055,-9.479999542236328
1773230430390129700,14.008129638671875,-11.399999618530273,19.260000228881836,-9.359999656677246
1773230430406121500,14.02412158203125,-10.920000076293945,19.439998626708984,-9.719999313354492
1773230430422109000,14.04010888671875,-11.34000015258789,19.619998931884766,-10.380000114440918
1773230430438133000,14.056133056640626,-12.300000190734863,19.3799991607666,-10.199999809265137
1773230430454124800,14.072124755859376,-12.539999961853027,18.779998779296875,-9.84000015258789
1773230430470115800,14.08811572265625,-11.75999927520752,19.439998626708984,-9.960000038146973
1773230430486106600,14.104106689453126,-11.09999942779541,19.439998626708984,-9.84000015258789
1773230430502126600,14.120126708984374,-11.399999618530273,18.65999984741211,-9.84000015258789
1773230430518117400,14.136117431640624,-10.920000076293945,18.18000030517578,-10.260000228881836
1773230430534110200,14.152110107421874,-10.920000076293945,18.479999542236328,-10.019999504089355
1773230430550102800,14.168102783203125,-11.880000114440918,19.619998931884766,-9.719999313354492
1773230430566123000,14.184123046875,-11.9399995803833,19.439998626708984,-9.719999313354492
1773230430582113300,14.20011328125,-11.399999618530273,18.779998779296875,-9.779999732971191
1773230430598103800,14.216103759765625,-11.039999961853027,18.53999900817871,-10.019999504089355
1773230430614125300,14.232125244140626,-11.460000038146973,19.079999923706055,-10.019999504089355
1773230430630120000,14.248119873046875,-11.819999694824219,19.260000228881836,-9.960000038146973
1773230430646111000,14.264111083984375,-11.639999389648438,18.479999542236328,-10.019999504089355
1773230430662131200,14.280131103515625,-11.34000015258789,18.239999771118164,-9.779999732971191
1773230430678122500,14.29612255859375,-11.219999313354492,18.18000030517578,-10.139999389648438
1773230430694112800,14.31211279296875,-11.219999313354492,18.420000076293945,-10.199999809265137
1773230430710105900,14.32810595703125,-10.979999542236328,19.260000228881836,-9.359999656677246
1773230430726126600,14.344126708984374,-11.09999942779541,19.260000228881836,-9.239999771118164
1773230430742117600,14.36011767578125,-11.639999389648438,19.619998931884766,-9.719999313354492
1773230430758110000,14.37610986328125,-12.179999351501465,19.85999870300293,-10.260000228881836
1773230430774129000,14.39212890625,-12,19.260000228881836,-9.65999984741211
1773230430790124300,14.408124267578126,-11.219999313354492,19.079999923706055,-9.239999771118164
1773230430806111700,14.42411181640625,-10.800000190734863,18.84000015258789,-10.019999504089355
1773230430822103300,14.440103271484375,-10.979999542236328,18.84000015258789,-9.84000015258789
1773230430838125600,14.45612548828125,-11.34000015258789,19.139999389648438,-9.65999984741211
1773230430854115800,14.47211572265625,-11.34000015258789,19.799999237060547,-10.199999809265137
1773230430870107100,14.488107177734374,-11.699999809265137,19.5,-9.59999942779541
1773230430886129400,14.50412939453125,-11.9399995803833,19.020000457763672,-9.239999771118164
1773230430902120000,14.520119873046875,-11.460000038146973,20.03999900817871,-9.719999313354492
1773230430918111500,14.536111572265625,-11.519999504089355,20.03999900817871,-9.779999732971191
1773230430934102300,14.552102294921875,-12.239999771118164,19.260000228881836,-9.899999618530273
1773230430950126600,14.568126708984375,-12.119999885559082,19.799999237060547,-9.84000015258789
1773230430966115300,14.584115234375,-11.519999504089355,19.260000228881836,-9.359999656677246
1773230430982106400,14.6001064453125,-11.639999389648438,18.420000076293945,-9.779999732971191
1773230430998130000,14.6161298828125,-10.800000190734863,18.959999084472656,-9.719999313354492
1773230431014121000,14.632120849609375,-10.979999542236328,19.139999389648438,-9.59999942779541
1773230431030111700,14.64811181640625,-11.880000114440918,18.119998931884766,-9.960000038146973
1773230431046102800,14.664102783203125,-11.699999809265137,18,-9.960000038146973
1773230431062124500,14.68012451171875,-11.219999313354492,18.479999542236328,-9.779999732971191
1773230431078116400,14.696116455078124,-10.5,18.420000076293945,-9.84000015258789
1773230431094107100,14.712107177734374,-10.739999771118164,18.899999618530273,-10.260000228881836
1773230431110130200,14.728130126953126,-11.579999923706055,18.35999870300293,-10.380000114440918
1773230431126119700,14.74411962890625,-11.639999389648438,17.8799991607666,-10.5
1773230431142110500,14.7601103515625,-11.579999923706055,17.760000228881836,-10.4399995803833
1773230431158102500,14.7761025390625,-10.979999542236328,17.8799991607666,-10.139999389648438
1773230431174123800,14.792123779296874,-10.559999465942383,18.719999313354492,-10.019999504089355
1773230431190116400,14.808116455078125,-11.09999942779541,18.719999313354492,-10.079999923706055
1773230431206105600,14.824105712890624,-11.460000038146973,18.479999542236328,-9.539999961853027
1773230431222128000,14.840128173828125,-10.139999389648438,18.420000076293945,-9.539999961853027
1773230431238118100,14.8561181640625,-9.65999984741211,18.479999542236328,-9.84000015258789
1773230431254109400,14.872109375,-11.039999961853027,19.139999389648438,-10.019999504089355
1773230431270104000,14.88810400390625,-11.399999618530273,19.079999923706055,-10.859999656677246
1773230431286122500,14.90412255859375,-11.279999732971191,18.65999984741211,-10.739999771118164
1773230431302114000,14.920114013671874,-11.639999389648438,18.299999237060547,-9.59999942779541
1773230431318104300,14.936104248046876,-11.09999942779541,18.779998779296875,-9.539999961853027
1773230431334126800,14.952126953125,-10.739999771118164,19.5,-10.019999504089355
1773230431350120200,14.9681201171875,-11.219999313354492,19.020000457763672,-10.139999389648438
1773230431366111000,14.984111083984375,-11.639999389648438,18.65999984741211,-10.260000228881836
1773230431382099700,15.000099609375,-10.920000076293945,18.53999900817871,-10.260000228881836
1773230431398121200,15.016121337890626,-10.380000114440918,18.65999984741211,-10.319999694824219
1773230431414112500,15.032112548828126,-11.519999504089355,19.139999389648438,-10.739999771118164
1773230431430106000,15.048106201171874,-11.699999809265137,19.260000228881836,-10.739999771118164
1773230431446126300,15.064126220703125,-11.460000038146973,19.68000030517578,-10.559999465942383
1773230431462118000,15.080117919921875,-11.519999504089355,19.85999870300293,-10.4399995803833
1773230431478107400,15.096107421875,-11.15999984741211,18.35999870300293,-10.4399995803833
1773230431494099200,15.11209912109375,-10.739999771118164,18.059999465942383,-10.619999885559082
1773230431510124300,15.128124267578125,-11.579999923706055,18.899999618530273,-10.559999465942383
1773230431526112300,15.1441123046875,-12.119999885559082,19.139999389648438,-10.380000114440918
1773230431542105600,15.160105712890624,-11.460000038146973,19.439998626708984,-10.920000076293945
1773230431558126300,15.176126220703125,-11.15999984741211,19.5,-10.739999771118164
1773230431574115600,15.192115478515625,-11.699999809265137,19.31999969482422,-9.84000015258789
1773230431590109200,15.208109130859375,-11.880000114440918,19.5,-10.139999389648438
1773230431606130700,15.224130615234374,-11.09999942779541,18.600000381469727,-10.199999809265137
1773230431622120400,15.240120361328126,-11.279999732971191,18,-10.5
1773230431638111000,15.256111083984376,-12.059999465942383,19.020000457763672,-10.739999771118164
1773230431654104000,15.27210400390625,-11.639999389648438,19.439998626708984,-10.139999389648438
1773230431670126800,15.288126953125,-10.979999542236328,18.719999313354492,-9.719999313354492
1773230431686116400,15.304116455078125,-11.09999942779541,18.299999237060547,-9.719999313354492
1773230431702107100,15.320107177734375,-10.319999694824219,19.139999389648438,-10.559999465942383
1773230431718129700,15.336129638671874,-9.719999313354492,19.619998931884766,-11.279999732971191
1773230431734120700,15.35212060546875,-10.619999885559082,18.719999313354492,-11.579999923706055
1773230431750113300,15.36811328125,-11.460000038146973,18.299999237060547,-10.859999656677246
1773230431766102300,15.384102294921876,-11.399999618530273,19.139999389648438,-10.319999694824219
1773230431782124500,15.40012451171875,-11.039999961853027,19.020000457763672,-10.859999656677246
1773230431798115000,15.416114990234375,-11.15999984741211,19.31999969482422,-10.559999465942383
1773230431814105900,15.43210595703125,-11.639999389648438,19.5,-10.260000228881836
1773230431830130000,15.4481298828125,-11.579999923706055,18.779998779296875,-10.679999351501465
1773230431846121500,15.46412158203125,-11.219999313354492,19.079999923706055,-10.559999465942383
1773230431862112000,15.480112060546874,-11.34000015258789,19.5,-9.84000015258789
1773230431878103300,15.496103271484374,-11.579999923706055,19.68000030517578,-9.779999732971191
1773230431894123500,15.51212353515625,-11.519999504089355,19.559999465942383,-10.559999465942383
1773230431910116000,15.5281162109375,-11.09999942779541,19.619998931884766,-10.739999771118164
1773230431926106400,15.5441064453125,-10.979999542236328,19.5,-10.319999694824219
1773230431942127600,15.560127685546876,-10.800000190734863,19.020000457763672,-10.619999885559082
1773230431958119000,15.576118896484376,-11.75999927520752,19.260000228881836,-11.039999961853027
1773230431974109700,15.592109619140626,-11.699999809265137,19.799999237060547,-11.34000015258789
1773230431990103300,15.608103271484374,-10.5,18.779998779296875,-10.739999771118164
1773230432006122500,15.62412255859375,-10.739999771118164,18.119998931884766,-10.859999656677246
1773230432022114000,15.640114013671875,-11.579999923706055,18.899999618530273,-10.619999885559082
1773230432038104800,15.656104736328125,-12.539999961853027,19.85999870300293,-10.019999504089355
1773230432054127600,15.672127685546876,-12.059999465942383,20.100000381469727,-10.319999694824219
1773230432070119700,15.68811962890625,-11.519999504089355,19.68000030517578,-10.4399995803833
1773230432086110200,15.704110107421876,-11.75999927520752,19.920000076293945,-10.979999542236328
1773230432102102300,15.720102294921874,-11.75999927520752,19.85999870300293,-10.380000114440918
1773230432118123500,15.73612353515625,-11.75999927520752,19.31999969482422,-9.59999942779541
1773230432134113800,15.75211376953125,-11.699999809265137,18.899999618530273,-9.899999618530273
1773230432150106600,15.768106689453125,-11.34000015258789,19.3799991607666,-9.960000038146973
1773230432166129000,15.78412890625,-11.09999942779541,20.520000457763672,-9.59999942779541
1773230432182119000,15.800118896484374,-11.279999732971191,20.34000015258789,-9.779999732971191
1773230432198108700,15.816108642578126,-11.579999923706055,19.619998931884766,-9.719999313354492
1773230432214100500,15.8321005859375,-11.039999961853027,18.959999084472656,-9.300000190734863
1773230432230124000,15.8481240234375,-11.519999504089355,19.020000457763672,-9.899999618530273
1773230432246114800,15.86411474609375,-12.479999542236328,19.68000030517578,-9.59999942779541
1773230432262104800,15.880104736328125,-12.059999465942383,19.020000457763672,-8.819999694824219
1773230432278126300,15.896126220703126,-12.719999313354492,19.079999923706055,-8.9399995803833
1773230432294118000,15.912117919921876,-12.479999542236328,19.799999237060547,-8.9399995803833
1773230432310110500,15.9281103515625,-11.819999694824219,19.68000030517578,-9.059999465942383
1773230432326101000,15.94410107421875,-12.300000190734863,19.439998626708984,-9.539999961853027
1773230432342123300,15.960123291015625,-12.059999465942383,19.85999870300293,-9.65999984741211
1773230432358112800,15.97611279296875,-12,19.559999465942383,-9.779999732971191
1773230432374103000,15.99210302734375,-11.699999809265137,18.84000015258789,-10.199999809265137
1773230432390125800,16.008125732421874,-10.920000076293945,18.35999870300293,-10.4399995803833
1773230432406115000,16.024114990234374,-10.800000190734863,18.719999313354492,-10.5
1773230432422108700,16.040108642578126,-11.880000114440918,19.5,-10.019999504089355
1773230432438100700,16.056100830078126,-12.179999351501465,19.68000030517578,-9.539999961853027
1773230432454119700,16.07211962890625,-11.460000038146973,19.68000030517578,-9.420000076293945
1773230432470110500,16.0881103515625,-11.519999504089355,19.3799991607666,-10.260000228881836
1773230432486102300,16.104102294921876,-11.699999809265137,18.959999084472656,-10.4399995803833
1773230432502124500,16.12012451171875,-11.34000015258789,18.899999618530273,-9.420000076293945
1773230432518117000,16.1361171875,-11.039999961853027,19.260000228881836,-8.819999694824219
1773230432534158600,16.15215869140625,-11.34000015258789,20.15999984741211,-8.279999732971191
1773230432550148600,16.168148681640623,-10.979999542236328,20.219999313354492,-8.9399995803833
1773230432566173000,16.1841728515625,-10.859999656677246,19.3799991607666,-9.539999961853027
1773230432582162700,16.20016259765625,-11.279999732971191,19.31999969482422,-9.420000076293945
1773230432598152200,16.216152099609374,-11.519999504089355,19.739999771118164,-9.300000190734863
1773230432614175200,16.23217529296875,-11.699999809265137,19.619998931884766,-9.300000190734863
1773230432630168000,16.24816796875,-11.519999504089355,19.5,-9.899999618530273
1773230432646156500,16.264156494140625,-11.279999732971191,19.68000030517578,-9.899999618530273
1773230432662180000,16.28018017578125,-11.399999618530273,19.739999771118164,-9.239999771118164
1773230432678169300,16.29616943359375,-12.179999351501465,19.260000228881836,-9.239999771118164
1773230432694162200,16.312162109375,-12.359999656677246,19.19999885559082,-9.119999885559082
1773230432710151700,16.328151611328124,-12.359999656677246,19.3799991607666,-8.9399995803833
1773230432726175700,16.34417578125,-12.779999732971191,19.5,-9.239999771118164
1773230432742165000,16.3601650390625,-12.65999984741211,19.260000228881836,-8.639999389648438
1773230432758157800,16.37615771484375,-11.579999923706055,19.079999923706055,-8.639999389648438
1773230432774178600,16.392178466796874,-11.579999923706055,19.31999969482422,-9.119999885559082
1773230432790170000,16.408170166015626,-11.219999313354492,19.079999923706055,-9.179999351501465
1773230432806163500,16.42416357421875,-10.4399995803833,18.899999618530273,-9.300000190734863
1773230432822152000,16.44015185546875,-10.800000190734863,19.079999923706055,-8.699999809265137
1773230432838173700,16.456173583984373,-11.460000038146973,18.959999084472656,-8.639999389648438
1773230432854168000,16.47216796875,-11.579999923706055,19.020000457763672,-8.699999809265137
1773230432870157800,16.48815771484375,-12,19.19999885559082,-9.359999656677246
1773230432886177300,16.50417724609375,-12.59999942779541,19.079999923706055,-9.65999984741211
1773230432902169600,16.520169677734376,-12.359999656677246,19.020000457763672,-8.819999694824219
1773230432918161000,16.536160888671876,-11.75999927520752,19.559999465942383,-8.519999504089355
1773230432934151200,16.552151123046876,-11.75999927520752,19.739999771118164,-8.399999618530273
1773230432950175500,16.568175537109376,-11.699999809265137,19.020000457763672,-8.639999389648438
1773230432966163700,16.584163818359375,-11.519999504089355,18.899999618530273,-9.179999351501465
1773230432982157000,16.600156982421876,-11.579999923706055,19.020000457763672,-9.179999351501465
1773230432998178600,16.616178466796875,-11.460000038146973,19.139999389648438,-9.059999465942383
1773230433014168600,16.63216845703125,-11.399999618530273,18.899999618530273,-8.699999809265137
1773230433030162400,16.648162353515627,-12.059999465942383,18.84000015258789,-8.399999618530273
1773230433046152000,16.66415185546875,-12.719999313354492,18.239999771118164,-8.880000114440918
1773230433062172700,16.680172607421873,-12,17.81999969482422,-8.699999809265137
1773230433078164200,16.696164306640625,-11.639999389648438,18.719999313354492,-8.09999942779541
1773230433094155800,16.71215576171875,-11.880000114440918,18.600000381469727,-8.15999984741211
1773230433110177500,16.728177490234376,-11.9399995803833,17.8799991607666,-8.639999389648438
1773230433126170400,16.74417041015625,-11.75999927520752,18.600000381469727,-9.300000190734863
1773230433142159000,16.7601591796875,-11.579999923706055,19.3799991607666,-9.539999961853027
1773230433158152400,16.77615234375,-11.819999694824219,19.020000457763672,-9.300000190734863
1773230433174172700,16.792172607421875,-11.09999942779541,18.059999465942383,-8.9399995803833
1773230433190166000,16.808166015625,-10.800000190734863,17.760000228881836,-8.639999389648438
1773230433206156000,16.824156005859376,-11.399999618530273,18.420000076293945,-9.359999656677246
1773230433222177800,16.840177734375,-10.920000076293945,18.84000015258789,-9.899999618530273
1773230433238167800,16.856167724609374,-10.5,18.420000076293945,-9.479999542236328
1773230433254160400,16.872160400390626,-10.319999694824219,18.719999313354492,-9.479999542236328
1773230433270151200,16.888151123046875,-10.739999771118164,19.31999969482422,-9.539999961853027
1773230433286174000,16.904174072265626,-10.979999542236328,19.19999885559082,-9.479999542236328
1773230433302164700,16.920164794921874,-11.460000038146973,18.779998779296875,-9.479999542236328
1773230433318154200,16.936154296875,-12,18,-9.84000015258789
1773230433334177000,16.952177001953125,-12,17.8799991607666,-9.960000038146973
1773230433350168000,16.96816796875,-11.9399995803833,18.53999900817871,-9.899999618530273
1773230433366158600,16.98415869140625,-11.75999927520752,18.299999237060547,-10.139999389648438
1773230433382151200,17.000151123046876,-11.579999923706055,18.420000076293945,-10.019999504089355
1773230433398171000,17.0161708984375,-10.5,18.53999900817871,-9.960000038146973
1773230433414162200,17.032162109375,-10.679999351501465,18.65999984741211,-10.079999923706055
1773230433430156300,17.04815625,-11.15999984741211,19.020000457763672,-9.84000015258789
1773230433446177800,17.064177734375,-11.399999618530273,18.65999984741211,-9.119999885559082
1773230433462166800,17.080166748046874,-11.75999927520752,19.559999465942383,-8.760000228881836
1773230433478158300,17.096158447265626,-11.519999504089355,19.619998931884766,-9.119999885559082
1773230433494150100,17.112150146484375,-11.579999923706055,18.299999237060547,-9.65999984741211
1773230433510173400,17.12817333984375,-11.699999809265137,18.65999984741211,-9.84000015258789
1773230433526165200,17.144165283203126,-11.639999389648438,18.899999618530273,-9.719999313354492
1773230433542154000,17.160154052734374,-11.639999389648438,18.420000076293945,-9.239999771118164
1773230433558175700,17.17617578125,-11.279999732971191,18.779998779296875,-9.420000076293945
1773230433574166500,17.19216650390625,-11.219999313354492,19.19999885559082,-10.019999504089355
1773230433590160400,17.208160400390625,-11.399999618530273,18.719999313354492,-10.319999694824219
1773230433606180000,17.22418017578125,-11.639999389648438,18.239999771118164,-10.260000228881836
1773230433622172200,17.240172119140624,-11.75999927520752,18.18000030517578,-10.019999504089355
1773230433638162000,17.256161865234375,-11.519999504089355,18.84000015258789,-10.019999504089355
1773230433654152400,17.27215234375,-11.639999389648438,19.139999389648438,-9.779999732971191
1773230433670176800,17.2881767578125,-11.09999942779541,18.65999984741211,-9.84000015258789
1773230433686166000,17.304166015625,-10.739999771118164,18.479999542236328,-10.139999389648438
1773230433702157600,17.320157470703126,-11.219999313354492,18.600000381469727,-10.199999809265137
1773230433718178600,17.336178466796873,-11.219999313354492,18.779998779296875,-9.779999732971191
1773230433734171000,17.3521708984375,-11.639999389648438,18.959999084472656,-9
1773230433750163500,17.36816357421875,-11.880000114440918,18.53999900817871,-8.639999389648438
1773230433766155300,17.3841552734375,-11.15999984741211,18.239999771118164,-8.819999694824219
1773230433782174500,17.400174560546876,-10.739999771118164,18.35999870300293,-9.119999885559082
1773230433798165500,17.41616552734375,-11.09999942779541,18.420000076293945,-9.719999313354492
1773230433814158000,17.432157958984376,-11.460000038146973,18.059999465942383,-10.139999389648438
1773230433830149400,17.4481494140625,-10.920000076293945,18.420000076293945,-9.65999984741211
1773230433846172000,17.464171875,-11.09999942779541,18.779998779296875,-9.359999656677246
1773230433862162700,17.48016259765625,-11.75999927520752,18.420000076293945,-9.300000190734863
1773230433878152400,17.49615234375,-11.880000114440918,18.84000015258789,-9.359999656677246
1773230433894175200,17.51217529296875,-11.039999961853027,18.35999870300293,-10.019999504089355
1773230433910167600,17.52816748046875,-10.260000228881836,18.479999542236328,-10.019999504089355
1773230433926156300,17.54415625,-10.619999885559082,19.139999389648438,-9.539999961853027
1773230433942180600,17.5601806640625,-11.219999313354492,18.84000015258789,-9.59999942779541
1773230433958169600,17.576169677734374,-11.34000015258789,19.079999923706055,-10.199999809265137
1773230433974161200,17.5921611328125,-10.559999465942383,18.959999084472656,-10.380000114440918
1773230433990153000,17.608153076171874,-10.619999885559082,18.719999313354492,-9.779999732971191
1773230434006175000,17.624175048828125,-10.679999351501465,18.84000015258789,-10.079999923706055
1773230434022167000,17.6401669921875,-10.619999885559082,19.260000228881836,-10.800000190734863
1773230434038155800,17.65615576171875,-10.979999542236328,19.139999389648438,-10.679999351501465
1773230434054177500,17.672177490234375,-10.979999542236328,18.600000381469727,-10.380000114440918
1773230434070170600,17.688170654296876,-11.460000038146973,18.119998931884766,-10.619999885559082
1773230434086161700,17.70416162109375,-11.819999694824219,17.8799991607666,-10.380000114440918
1773230434102153000,17.720153076171876,-11.819999694824219,19.020000457763672,-9.779999732971191
1773230434118174500,17.736174560546875,-11.639999389648438,19.3799991607666,-9.539999961853027
1773230434134164700,17.752164794921875,-10.739999771118164,18.84000015258789,-9.719999313354492
1773230434150157600,17.768157470703127,-10.380000114440918,18.899999618530273,-10.380000114440918
1773230434166177300,17.78417724609375,-10.979999542236328,19.020000457763672,-10.319999694824219
1773230434182169300,17.80016943359375,-10.859999656677246,18.059999465942383,-10.679999351501465
1773230434198161400,17.816161376953126,-10.559999465942383,17.81999969482422,-10.979999542236328
1773230434214151200,17.832151123046874,-11.34000015258789,18.65999984741211,-10.859999656677246
1773230434230172200,17.848172119140624,-12,18.959999084472656,-10.319999694824219
1773230434246165200,17.864165283203125,-11.460000038146973,18.600000381469727,-9.779999732971191
1773230434262155500,17.880155517578125,-11.039999961853027,18.65999984741211,-9.960000038146973
1773230434278177300,17.89617724609375,-10.679999351501465,19.139999389648438,-10.319999694824219
1773230434294169600,17.912169677734376,-10.800000190734863,18.899999618530273,-10.4399995803833
1773230434310161400,17.928161376953124,-10.920000076293945,19.020000457763672,-10.979999542236328
1773230434326153200,17.9441533203125,-10.920000076293945,18.719999313354492,-11.219999313354492
1773230434342171600,17.960171630859374,-11.15999984741211,18.84000015258789,-10.559999465942383
1773230434358164700,17.976164794921875,-10.859999656677246,19.139999389648438,-10.139999389648438
1773230434374154200,17.992154296875,-10.979999542236328,18.779998779296875,-10.139999389648438
1773230434390178300,18.00817822265625,-11.15999984741211,18.719999313354492,-10.199999809265137
1773230434406170000,18.024170166015626,-11.09999942779541,18.719999313354492,-10.380000114440918
1773230434422159400,18.040159423828126,-11.039999961853027,18.239999771118164,-10.800000190734863
1773230434438152400,18.05615234375,-11.34000015258789,18.53999900817871,-10.619999885559082
1773230434454173400,18.07217333984375,-11.519999504089355,19.020000457763672,-10.380000114440918
1773230434470162200,18.088162109375,-11.219999313354492,18.18000030517578,-10.139999389648438
1773230434486156300,18.10415625,-11.279999732971191,18.18000030517578,-9.65999984741211
1773230434502177300,18.12017724609375,-11.579999923706055,18.779998779296875,-9.59999942779541
1773230434518168600,18.13616845703125,-11.460000038146973,18.059999465942383,-9.84000015258789
1773230434534158800,18.152158935546876,-11.219999313354492,18.239999771118164,-9.719999313354492
1773230434550178800,18.1681787109375,-11.399999618530273,18.600000381469727,-9.479999542236328
1773230434566173000,18.1841728515625,-11.34000015258789,17.8799991607666,-10.019999504089355
1773230434582162000,18.200161865234374,-11.039999961853027,17.940000534057617,-9.84000015258789
1773230434598154000,18.216154052734375,-10.739999771118164,18.479999542236328,-9.779999732971191
1773230434614176000,18.232176025390626,-10.859999656677246,18.119998931884766,-10.019999504089355
1773230434630168300,18.248168212890626,-11.039999961853027,17.69999885559082,-10.079999923706055
1773230434646159000,18.2641591796875,-11.460000038146973,18,-10.559999465942383
1773230434662179800,18.280179931640625,-11.34000015258789,18.299999237060547,-10.559999465942383
1773230434678173200,18.296173095703125,-10.739999771118164,18.600000381469727,-9.960000038146973
1773230434694162000,18.312161865234376,-10.920000076293945,18.35999870300293,-9.479999542236328
1773230434710156500,18.328156494140625,-11.579999923706055,18.479999542236328,-9.239999771118164
1773230434726176800,18.3441767578125,-11.460000038146973,18.899999618530273,-10.199999809265137
1773230434742167300,18.360167236328124,-11.34000015258789,18.119998931884766,-10.920000076293945
1773230434758160400,18.376160400390624,-11.399999618530273,17.940000534057617,-10.380000114440918
1773230434774179300,18.392179443359375,-11.219999313354492,18.059999465942383,-10.079999923706055
1773230434790173700,18.408173583984375,-11.15999984741211,18.119998931884766,-10.559999465942383
1773230434806163700,18.424163818359375,-10.739999771118164,18.600000381469727,-11.039999961853027
1773230434822155000,18.440155029296875,-11.039999961853027,18.959999084472656,-11.09999942779541
1773230434838175700,18.45617578125,-11.699999809265137,18.779998779296875,-11.039999961853027
1773230434854166800,18.472166748046874,-11.9399995803833,18.059999465942383,-10.800000190734863
1773230434870160000,18.488159912109374,-12,18.600000381469727,-10.260000228881836
1773230434886179600,18.5041796875,-11.819999694824219,18.84000015258789,-9.479999542236328
1773230434902170000,18.520170166015625,-10.920000076293945,17.940000534057617,-9.719999313354492
1773230434918162000,18.536161865234376,-10.739999771118164,18.299999237060547,-10.4399995803833
1773230434934153000,18.552153076171876,-11.039999961853027,18.239999771118164,-10.139999389648438
1773230434950176000,18.568176025390624,-11.460000038146973,17.459999084472656,-10.019999504089355
1773230434966168300,18.584168212890624,-12.119999885559082,17.940000534057617,-10.079999923706055
1773230434982158000,18.600157958984376,-12.359999656677246,18.600000381469727,-10.079999923706055
1773230434998179600,18.6161796875,-12.59999942779541,18.53999900817871,-10.319999694824219
1773230435014170000,18.632170166015626,-12,18.53999900817871,-10.319999694824219
1773230435030164000,18.6481640625,-11.579999923706055,18.479999542236328,-10.739999771118164
1773230435046153700,18.66415380859375,-11.639999389648438,18.84000015258789,-10.800000190734863
1773230435062174700,18.6801748046875,-11.399999618530273,18.719999313354492,-10.679999351501465
1773230435078166000,18.696166015625,-11.460000038146973,17.940000534057617,-10.559999465942383
1773230435094156500,18.712156494140626,-11.519999504089355,18.420000076293945,-9.960000038146973
1773230435110180400,18.728180419921873,-11.34000015258789,18.779998779296875,-10.139999389648438
1773230435126171600,18.744171630859373,-11.039999961853027,18.53999900817871,-10.859999656677246
1773230435142161400,18.760161376953125,-10.559999465942383,17.940000534057617,-10.199999809265137
1773230435158153200,18.7761533203125,-10.739999771118164,18.18000030517578,-9.539999961853027
1773230435174174000,18.792174072265624,-11.09999942779541,18.899999618530273,-10.139999389648438
1773230435190167000,18.8081669921875,-10.679999351501465,18.53999900817871,-10.5
1773230435206158300,18.824158447265624,-10.679999351501465,18.600000381469727,-10.260000228881836
1773230435222177800,18.840177734375,-11.219999313354492,18.239999771118164,-9.84000015258789
1773230435238168600,18.85616845703125,-11.639999389648438,17.459999084472656,-9.779999732971191
1773230435254160600,18.87216064453125,-11.639999389648438,17.81999969482422,-10.5
1773230435270153000,18.888153076171875,-11.579999923706055,17.639999389648438,-11.09999942779541
1773230435286175000,18.904175048828126,-11.579999923706055,17.520000457763672,-10.859999656677246
1773230435302165200,18.920165283203126,-11.880000114440918,17.579999923706055,-10.199999809265137
1773230435318157000,18.936156982421874,-12.239999771118164,17.279998779296875,-10.199999809265137
1773230435334177000,18.952177001953125,-11.9399995803833,17.399999618530273,-10.800000190734863
1773230435350168000,18.96816796875,-11.639999389648438,16.85999870300293,-10.920000076293945
1773230435366161700,18.98416162109375,-10.979999542236328,16.739999771118164,-11.039999961853027
1773230435382152200,19.000152099609377,-11.34000015258789,16.68000030517578,-10.559999465942383
1773230435398172400,19.01617236328125,-11.75999927520752,15.960000038146973,-10.5
1773230435414165800,19.032165771484376,-11.639999389648438,16.079999923706055,-10.920000076293945
1773230435430156300,19.04815625,-11.75999927520752,16.85999870300293,-11.039999961853027
1773230435446177800,19.064177734375,-11.399999618530273,16.739999771118164,-11.34000015258789
1773230435462169000,19.080169189453127,-11.039999961853027,16.440000534057617,-10.859999656677246
1773230435478161400,19.096161376953123,-11.699999809265137,16.979999542236328,-10.859999656677246
1773230435494153200,19.1121533203125,-12.179999351501465,16.979999542236328,-11.15999984741211
1773230435510175000,19.128175048828126,-11.519999504089355,16.85999870300293,-10.920000076293945
1773230435526165200,19.144165283203126,-10.920000076293945,16.920000076293945,-10.979999542236328
1773230435542157000,19.160156982421874,-11.279999732971191,16.739999771118164,-11.519999504089355
1773230435558176800,19.1761767578125,-11.519999504089355,16.979999542236328,-12.059999465942383
1773230435574168800,19.1921689453125,-11.09999942779541,17.03999900817871,-11.819999694824219
1773230435590161200,19.2081611328125,-11.819999694824219,16.68000030517578,-11.15999984741211
1773230435606152200,19.224152099609373,-12.84000015258789,16.139999389648438,-11.15999984741211
1773230435622172400,19.24017236328125,-12.479999542236328,16.139999389648438,-11.699999809265137
1773230435638165800,19.256165771484376,-12.420000076293945,16.619998931884766,-11.519999504089355
1773230435654156000,19.272156005859376,-12.119999885559082,16.440000534057617,-10.619999885559082
1773230435670179000,19.288178955078124,-12.65999984741211,16.31999969482422,-10.679999351501465
1773230435686168600,19.30416845703125,-13.619999885559082,16.440000534057617,-10.920000076293945
1773230435702159000,19.3201591796875,-12.960000038146973,16.920000076293945,-10.859999656677246
1773230435718180600,19.3361806640625,-12.899999618530273,17.100000381469727,-11.15999984741211
1773230435734172200,19.352172119140626,-13.019999504089355,16.85999870300293,-10.5
1773230435750165000,19.3681650390625,-12.779999732971191,16.739999771118164,-9.719999313354492
1773230435766156300,19.38415625,-13.319999694824219,16.619998931884766,-9.960000038146973
1773230435782175700,19.40017578125,-13.380000114440918,16.559999465942383,-10.260000228881836
1773230435798167800,19.416167724609377,-13.619999885559082,16.139999389648438,-9.359999656677246
1773230435814158300,19.432158447265625,-13.979999542236328,15.960000038146973,-9.479999542236328
1773230435830183000,19.448182861328124,-13.380000114440918,15.899999618530273,-10.199999809265137
1773230435846173700,19.464173583984376,-13.979999542236328,15.719999313354492,-9.59999942779541
1773230435862163500,19.48016357421875,-14.279999732971191,16.079999923706055,-8.9399995803833
1773230435878154800,19.49615478515625,-13.619999885559082,16.68000030517578,-8.819999694824219
1773230435894177000,19.512177001953123,-14.09999942779541,16.559999465942383,-9.059999465942383
1773230435910169300,19.52816943359375,-13.739999771118164,16.19999885559082,-9.65999984741211
1773230435926159000,19.5441591796875,-13.380000114440918,16.020000457763672,-10.139999389648438
1773230435942179300,19.560179443359374,-13.859999656677246,16.440000534057617,-9.719999313354492
1773230435958171100,19.576171142578126,-13.559999465942383,16.559999465942383,-9.899999618530273
1773230435974164000,19.5921640625,-13.380000114440918,16.139999389648438,-9.899999618530273
1773230435990156300,19.60815625,-14.34000015258789,16.440000534057617,-9.479999542236328
1773230436006175700,19.62417578125,-14.75999927520752,16.020000457763672,-9.300000190734863
1773230436022167600,19.64016748046875,-13.920000076293945,15.239999771118164,-8.9399995803833
1773230436038157800,19.65615771484375,-14.09999942779541,15.359999656677246,-9.119999885559082
1773230436054180400,19.672180419921876,-14.039999961853027,15.539999961853027,-9.899999618530273
1773230436070170000,19.688170166015624,-14.039999961853027,15.359999656677246,-9.779999732971191
1773230436086163200,19.7041630859375,-14.09999942779541,14.75999927520752,-9
1773230436102153200,19.7201533203125,-13.859999656677246,14.699999809265137,-9.179999351501465
1773230436118174700,19.7361748046875,-13.739999771118164,14.819999694824219,-9.239999771118164
1773230436134166000,19.752166015625,-14.219999313354492,14.519999504089355,-8.639999389648438
1773230436150159000,19.7681591796875,-14.699999809265137,14.219999313354492,-8.279999732971191
1773230436166182000,19.784181884765626,-13.920000076293945,13.979999542236328,-8.279999732971191
1773230436182170600,19.800170654296874,-14.34000015258789,14.219999313354492,-8.519999504089355
1773230436198161700,19.81616162109375,-14.75999927520752,15,-8.519999504089355
1773230436214154000,19.832154052734374,-13.920000076293945,15.179999351501465,-8.220000267028809
1773230436230176500,19.848176513671874,-14.399999618530273,15.059999465942383,-8.399999618530273
1773230436246167600,19.86416748046875,-14.639999389648438,15.359999656677246,-8.399999618530273
1773230436262158600,19.88015869140625,-13.25999927520752,15,-8.15999984741211
1773230436278178300,19.89617822265625,-13.5,15.179999351501465,-8.699999809265137
1773230436294170600,19.912170654296876,-14.039999961853027,16.079999923706055,-8.819999694824219
1773230436310163200,19.9281630859375,-13.979999542236328,15.960000038146973,-8.579999923706055
1773230436326152400,19.94415234375,-13.4399995803833,16.31999969482422,-8.9399995803833
1773230436342174000,19.960174072265627,-13.4399995803833,16.739999771118164,-9.179999351501465
1773230436358165200,19.976165283203127,-13.979999542236328,16.5,-9.179999351501465
1773230436374157000,19.992156982421875,-13.799999237060547,16.3799991607666,-9.179999351501465
1773230436390179300,20.008179443359374,-13.199999809265137,16.020000457763672,-9.359999656677246
1773230436406171400,20.02417138671875,-13.019999504089355,15.839999198913574,-9.479999542236328
1773230436422161000,20.040160888671874,-13.4399995803833,16.3799991607666,-9.300000190734863
1773230436438182100,20.05618212890625,-12.420000076293945,16.739999771118164,-9.359999656677246
1773230436454174700,20.0721748046875,-12.059999465942383,16.559999465942383,-9.420000076293945
1773230436470165800,20.088165771484373,-13.139999389648438,16.31999969482422,-9
1773230436486156000,20.104156005859377,-13.319999694824219,16.3799991607666,-9
1773230436502178600,20.120178466796876,-12.65999984741211,17.03999900817871,-9.300000190734863
1773230436518170000,20.136170166015624,-12.300000190734863,16.619998931884766,-9.899999618530273
1773230436534160600,20.15216064453125,-12.719999313354492,16.079999923706055,-10.559999465942383
1773230436550153700,20.16815380859375,-12.84000015258789,16.559999465942383,-9.719999313354492
1773230436565825500,20.183825439453123,-12.420000076293945,16.5,-9.479999542236328
1773230436582166500,20.20016650390625,-12.420000076293945,16.5,-9.960000038146973
1773230436598157600,20.216157470703124,-12.420000076293945,16.5,-9.65999984741211
1773230436614178600,20.232178466796874,-11.519999504089355,16.85999870300293,-9.960000038146973
1773230436630171000,20.2481708984375,-11.819999694824219,16.739999771118164,-10.319999694824219
1773230436646163000,20.264162841796875,-12.239999771118164,16.619998931884766,-10.139999389648438
1773230436662152400,20.28015234375,-11.75999927520752,17.520000457763672,-9.420000076293945
1773230436678172700,20.296172607421877,-12.300000190734863,17.639999389648438,-9.420000076293945
1773230436694163500,20.31216357421875,-12.899999618530273,17.459999084472656,-10.199999809265137
1773230436710156000,20.328156005859373,-12,17.459999084472656,-10.019999504089355
1773230436726178600,20.344178466796876,-11.34000015258789,17.279998779296875,-10.319999694824219
1773230436742169000,20.360169189453124,-12.119999885559082,16.979999542236328,-10.380000114440918
1773230436758160100,20.37616015625,-12.119999885559082,16.559999465942383,-10.019999504089355
1773230436774181000,20.39218115234375,-12.359999656677246,16.85999870300293,-10.380000114440918
1773230436790174500,20.408174560546875,-12.479999542236328,17.399999618530273,-10.800000190734863
1773230436806163200,20.4241630859375,-11.699999809265137,17.279998779296875,-10.920000076293945
1773230436822155800,20.44015576171875,-11.75999927520752,17.34000015258789,-10.619999885559082
1773230436838175700,20.45617578125,-11.639999389648438,17.8799991607666,-10.319999694824219
1773230436854169000,20.472169189453126,-11.399999618530273,17.639999389648438,-10.199999809265137
1773230436870161200,20.4881611328125,-11.880000114440918,17.219999313354492,-10.380000114440918
1773230436886181600,20.504181640625,-12.119999885559082,16.920000076293945,-10.4399995803833
1773230436902173000,20.5201728515625,-11.9399995803833,17.760000228881836,-10.559999465942383
1773230436918164700,20.536164794921874,-12,17.940000534057617,-10.079999923706055
1773230436934154000,20.552154052734377,-11.699999809265137,17.760000228881836,-10.019999504089355
1773230436950179300,20.568179443359377,-11.279999732971191,18.18000030517578,-10.679999351501465
1773230436966168300,20.584168212890624,-11.639999389648438,18.059999465942383,-10.380000114440918
1773230436982159400,20.600159423828124,-11.9399995803833,18.600000381469727,-9.960000038146973
1773230436998182700,20.6161826171875,-11.639999389648438,18.65999984741211,-9.539999961853027
1773230437014172400,20.63217236328125,-11.880000114440918,17.459999084472656,-9.239999771118164
1773230437030165000,20.6481650390625,-12.059999465942383,17.34000015258789,-9.65999984741211
1773230437046154000,20.664154052734375,-12.719999313354492,17.639999389648438,-9.59999942779541
1773230437062176800,20.6801767578125,-13.5,17.459999084472656,-9.119999885559082
1773230437078167800,20.696167724609374,-13.319999694824219,17.399999618530273,-9.239999771118164
1773230437094160000,20.712159912109374,-12.719999313354492,17.459999084472656,-9.719999313354492
1773230437110181000,20.72818115234375,-13.019999504089355,17.34000015258789,-10.319999694824219
1773230437126172000,20.744171875,-13.619999885559082,17.279998779296875,-9.539999961853027
1773230437142164700,20.760164794921874,-13.319999694824219,17.219999313354492,-9.059999465942383
1773230437158153500,20.776153564453125,-12.59999942779541,17.03999900817871,-9.779999732971191
1773230437174175200,20.79217529296875,-12.539999961853027,17.03999900817871,-9.359999656677246
1773230437190167800,20.808167724609376,-12.719999313354492,16.85999870300293,-9.059999465942383
1773230437206157000,20.824156982421876,-12.899999618530273,17.15999984741211,-9.59999942779541
1773230437222180400,20.840180419921875,-13.25999927520752,17.34000015258789,-9.65999984741211
1773230437238171600,20.856171630859375,-13.199999809265137,16.979999542236328,-9.300000190734863
1773230437254162700,20.87216259765625,-13.079999923706055,17.279998779296875,-9.539999961853027
1773230437270155800,20.88815576171875,-12.539999961853027,17.15999984741211,-9.899999618530273
1773230437286175000,20.904175048828126,-12.420000076293945,17.15999984741211,-9.179999351501465
1773230437302166000,20.920166015625,-12.779999732971191,17.459999084472656,-8.819999694824219
1773230437318157000,20.936156982421874,-12.719999313354492,17.34000015258789,-8.579999923706055
1773230437334180600,20.9521806640625,-12.179999351501465,17.579999923706055,-8.579999923706055
1773230437350172200,20.968172119140625,-12.899999618530273,17.81999969482422,-8.34000015258789
1773230437366164000,20.9841640625,-13.739999771118164,17.69999885559082,-7.980000019073486
1773230437382153500,21.000153564453125,-12.65999984741211,17.639999389648438,-8.09999942779541
1773230437398176000,21.016176025390624,-11.880000114440918,17.15999984741211,-9.059999465942383
1773230437414166300,21.032166259765624,-13.019999504089355,16.739999771118164,-9.779999732971191
1773230437430158800,21.048158935546876,-12.899999618530273,16.559999465942383,-9.179999351501465
1773230437446181600,21.064181640625,-12.65999984741211,16.260000228881836,-8.760000228881836
1773230437462171000,21.0801708984375,-13.739999771118164,16.68000030517578,-9.779999732971191
1773230437478163200,21.0961630859375,-14.279999732971191,17.639999389648438,-10.619999885559082
1773230437494153200,21.1121533203125,-13.859999656677246,18.239999771118164,-9.719999313354492
1773230437510175700,21.12817578125,-12.899999618530273,17.279998779296875,-9.359999656677246
1773230437526166300,21.144166259765626,-12.479999542236328,16.920000076293945,-9.059999465942383
1773230437542157300,21.1601572265625,-12.420000076293945,17.81999969482422,-9.059999465942383
1773230437558179800,21.176179931640625,-12.719999313354492,17.15999984741211,-9.59999942779541
1773230437574172000,21.192171875,-12.899999618530273,16.799999237060547,-9.479999542236328
1773230437590157000,21.208156982421876,-12.420000076293945,16.979999542236328,-9.239999771118164
1773230437606179600,21.2241796875,-12.65999984741211,16.979999542236328,-9.479999542236328
1773230437622168800,21.2401689453125,-12.539999961853027,17.459999084472656,-9.899999618530273
1773230437638161200,21.2561611328125,-12.479999542236328,16.979999542236328,-10.380000114440918
