time,seconds_elapsed,z,y,x
1773230417058191000,0.676191162109375,9.402029991149902,2.1308395862579346,0.26336219906806946
1773230417074184400,0.692184326171875,9.354146003723145,2.1978771686553955,0.20350714027881622
1773230417090176500,0.708176513671875,9.658209800720215,2.1787235736846924,0.0933738648891449
1773230417105747000,0.723746826171875,9.962273597717285,2.0614075660705566,-0.033518824726343155
1773230417122190000,0.740190185546875,10.062829971313477,1.889025092124939,-0.05985504388809204
1773230417138180900,0.756180908203125,9.955090522766113,1.8339585065841675,0.1867477297782898
1773230417154172200,0.772172119140625,9.782708168029785,1.9584569931030273,0.42377370595932007
1773230417170193200,0.788193115234375,9.59835433959961,2.0398597717285156,0.3687070608139038
1773230417186183700,0.80418359375,9.452308654785156,2.252943754196167,0.22505496442317963
1773230417202174700,0.8201748046875,9.44991397857666,2.4157495498657227,-0.014365210197865963
1773230417218198500,0.836198486328125,9.619902610778809,2.4899697303771973,-0.3064578175544739
1773230417234187500,0.8521875,9.931148529052734,2.456450939178467,-0.4165911078453064
1773230417282194200,0.900194091796875,9.334992408752441,2.1523873805999756,-0.10295066982507706
1773230417298183200,0.91618310546875,9.258378028869629,2.0638017654418945,0.11013327538967133
1773230417314175500,0.932175537109375,9.368511199951172,2.0207061767578125,0.22505496442317963
1773230417330197000,0.948197021484375,9.524134635925293,2.0398597717285156,0.3064578175544739
1773230417346187800,0.964187744140625,9.627084732055664,2.1547815799713135,0.28730419278144836
1773230417362178800,0.9801787109375,9.667786598205566,2.248155355453491,0.15322890877723694
1773230417378170000,0.996170166015625,9.749189376831055,2.3080103397369385,0.12449848651885986
1773230417393810000,1.011809814453125,9.787496566772461,2.1978771686553955,0.10773907601833344
1773230417410184200,1.02818408203125,9.737217903137207,2.03507137298584,0.20111294090747833
1773230417426175200,1.04417529296875,9.830592155456543,1.968033790588379,0.28730419278144836
1773230417442197800,1.06019775390625,9.84495735168457,1.9800047874450684,0.2849099934101105
1773230417458188300,1.076188232421875,9.648633003234863,2.0207061767578125,0.22744916379451752
1773230417474179600,1.0921796875,9.440337181091309,2.094926595687866,0.17717093229293823
1773230417490170600,1.108170654296875,9.375694274902344,2.1356279850006104,0.10534487664699554
1773230417506192100,1.124192138671875,9.41639518737793,2.123656988143921,0.0933738648891449
1773230417522184000,1.140183837890625,9.651026725769043,2.0470423698425293,0.17717093229293823
1773230417538174700,1.1561748046875,9.828198432922363,2.008735179901123,0.2513911724090576
1773230417554196200,1.1721962890625,10.079588890075684,2.0398597717285156,0.24420857429504395
1773230417570187500,1.1881875,10.08437728881836,2.0877439975738525,0.21547815203666687
1773230417586177000,1.204177001953125,10.02691650390625,2.142810583114624,0.011971008032560349
1773230417602201300,1.220201416015625,9.93593692779541,2.1547815799713135,-0.05746084079146385
1773230417618190600,1.236190673828125,9.890447616577148,2.1332337856292725,0.023942016065120697
1773230417634182400,1.252182373046875,10.139444351196289,2.0925323963165283,0.14844051003456116
1773230417650174000,1.268174072265625,10.488997459411621,2.142810583114624,0.2585737705230713
1773230417666195200,1.2841953125,10.311826705932617,2.2601263523101807,0.20350714027881622
1773230417682186500,1.3001865234375,9.861717224121094,2.4803929328918457,0.08379705995321274
1773230417698176500,1.316176513671875,9.117119789123535,2.4420857429504395,-0.13407529890537262
1773230417714169600,1.332169677734375,8.650250434875488,1.900996208190918,-0.727837324142456
1773230417730190800,1.34819091796875,8.75080680847168,2.497152328491211,0.3280056416988373
1773230417746183000,1.364182861328125,8.793902397155762,2.5330653190612793,0.42856210470199585
1773230417762174200,1.38017431640625,9.277531623840332,2.612074136734009,-0.2082955539226532
1773230417778193700,1.396193603515625,9.174580574035645,2.6192567348480225,-0.6105214357376099
1773230417794187500,1.4121875,9.033323287963867,2.896984100341797,-0.4884171485900879
1773230417810178300,1.42817822265625,8.769960403442383,2.626439332962036,0.009576806798577309
1773230417826199000,1.444198974609375,9.133879661560059,2.87064790725708,-0.1867477297782898
1773230417842191600,1.460191650390625,9.63187313079834,2.7509377002716064,-0.6153098344802856
1773230417858182000,1.476181884765625,9.674968719482422,2.650381326675415,-0.42856210470199585
1773230417874174200,1.49217431640625,9.550470352172852,2.5282769203186035,-0.21547815203666687
1773230417890195200,1.5081953125,9.655815124511719,2.5330653190612793,-0.1604115068912506
1773230417906186200,1.524186279296875,9.713275909423828,2.6575639247894287,-0.44771572947502136
1773230417922176800,1.5401767578125,9.605537414550781,2.650381326675415,-0.5099649429321289
1773230417938199300,1.55619921875,9.694122314453125,2.6192567348480225,-0.5770025849342346
1773230417954189600,1.572189453125,9.677363395690918,2.5330653190612793,-0.4213795065879822
1773230417970181600,1.588181640625,9.792284965515137,2.497152328491211,-0.524330198764801
1773230417986173000,1.6041728515625,9.53849983215332,2.4636335372924805,-0.45489832758903503
1773230418002195500,1.620195556640625,9.17697525024414,2.322375535964966,-0.4812345504760742
1773230418018186000,1.63618603515625,9.009381294250488,2.1715409755706787,-0.40462008118629456
1773230418034178300,1.65217822265625,9.172186851501465,2.0614075660705566,-0.5315127968788147
1773230418050169600,1.668169677734375,9.287108421325684,1.9847931861877441,-0.5051765441894531
1773230418066188500,1.6841884765625,9.366117477416992,2.030282974243164,-0.4620809257030487
1773230418082180400,1.700180419921875,9.655815124511719,2.006340980529785,-0.5746083855628967
1773230418098171600,1.716171630859375,9.677363395690918,1.8555063009262085,-0.5123591423034668
1773230418114195000,1.73219482421875,9.967061996459961,1.766920804977417,-0.45010992884635925
1773230418130185700,1.748185791015625,9.703699111938477,1.577778935432434,-0.33518823981285095
1773230418146177300,1.76417724609375,9.718064308166504,1.50355863571167,-0.17477671802043915
1773230418162199600,1.780199462890625,9.84256362915039,1.50355863571167,0
1773230418178188500,1.7961884765625,10.077195167541504,1.4413094520568848,0.011971008032560349
1773230418194181000,1.81218115234375,10.08437728881836,1.4413094520568848,-0.016759412363171577
1773230418210173000,1.8281728515625,9.804255485534668,1.501164436340332,-0.33997663855552673
1773230418226194200,1.844194091796875,9.787496566772461,1.479616641998291,-0.23942017555236816
1773230418242184200,1.86018408203125,10.079588890075684,1.5658079385757446,-0.2059013396501541
1773230418258175700,1.87617578125,9.765948295593262,1.5705963373184204,-0.21787235140800476
1773230418274199000,1.892198974609375,9.378087997436523,1.7166426181793213,-0.5123591423034668
1773230418290189300,1.908189208984375,9.284713745117188,1.7764976024627686,-0.6512228846549988
1773230418306179600,1.9241796875,9.44991397857666,1.7357962131500244,-0.4620809257030487
1773230418322172200,1.940172119140625,9.536105155944824,1.6376339197158813,-0.10773907601833344
1773230418338193400,1.956193359375,9.624691009521484,1.5418659448623657,0.1149216815829277
1773230418354183700,1.97218359375,9.545681953430176,1.601720929145813,0.181959331035614
1773230418370176500,1.988176513671875,9.490615844726562,1.6879122257232666,0.1604115068912506
1773230418386197500,2.004197509765625,9.679757118225098,1.8986018896102905,0.16759411990642548
1773230418402190000,2.020190185546875,9.737217903137207,2.1045033931732178,-0.07661445438861847
1773230418418181400,2.036181396484375,9.454702377319336,2.3582887649536133,-0.38546648621559143
1773230418434172000,2.052171875,9.059659004211426,2.4875755310058594,-0.2801215946674347
1773230418450194400,2.0681943359375,8.983044624328613,2.4803929328918457,-0.08858546614646912
1773230418466185200,2.084185302734375,9.363722801208496,2.4827871322631836,0.047884032130241394
1773230418482176300,2.10017626953125,9.299078941345215,2.585737943649292,0.13407529890537262
1773230418498197800,2.11619775390625,9.23443603515625,2.691082715988159,0.038307227194309235
1773230418514186200,2.132186279296875,9.437943458557129,2.6839001178741455,0.026336219161748886
1773230418530179800,2.148179931640625,9.531316757202148,2.6647465229034424,-0.026336219161748886
1773230418546169000,2.164169189453125,9.406818389892578,2.655169725418091,-0.15801730751991272
1773230418562193700,2.180193603515625,9.516951560974121,2.655169725418091,-0.05267243832349777
1773230418578183700,2.19618359375,9.536105155944824,2.604891538619995,-0.12449848651885986
1773230418594174500,2.212174560546875,9.641449928283691,2.564189910888672,-0.20111294090747833
1773230418610196500,2.228196533203125,9.81143856048584,2.676717519760132,-0.2298433631658554
1773230418626187800,2.244187744140625,9.93354320526123,2.58813214302063,-0.27054479718208313
1773230418642180000,2.26018017578125,9.988609313964844,2.585737943649292,-0.3208230137825012
1773230418658199300,2.27619921875,9.883264541625977,2.5258827209472656,-0.21787235140800476
1773230418674193700,2.292193603515625,10.0580415725708,2.410961151123047,-0.22744916379451752
1773230418690184400,2.308184326171875,10.160991668701172,2.3343467712402344,-0.05506663769483566
1773230418706176000,2.324176025390625,9.974244117736816,2.2170307636260986,-0.1843535304069519
1773230418722197000,2.340197021484375,9.569623947143555,2.1547815799713135,-0.2801215946674347
1773230418738189000,2.35618896484375,9.500192642211914,2.1164743900299072,-0.11252748221158981
1773230418754178300,2.37217822265625,9.66299819946289,1.9943699836730957,-0.13407529890537262
1773230418770168800,2.3881689453125,9.770736694335938,1.886630892753601,-0.09576806426048279
1773230418786191600,2.404191650390625,9.701305389404297,1.7956513166427612,-0.15562310814857483
1773230418802183000,2.420182861328125,9.5408935546875,1.7262194156646729,-0.17956513166427612
1773230418818174200,2.43617431640625,9.579200744628906,1.742978811264038,-0.05267243832349777
1773230418834197200,2.452197265625,9.588777542114258,1.601720929145813,-0.05746084079146385
1773230418850186800,2.468186767578125,9.600749015808105,1.4987702369689941,0.009576806798577309
1773230418866178300,2.48417822265625,9.50737476348877,1.525106430053711,0.09816227108240128
1773230418882170600,2.500170654296875,9.327810287475586,1.556231141090393,-0.10295066982507706
1773230418898191000,2.516191162109375,9.20091724395752,1.5442601442337036,-0.026336219161748886
1773230418914184000,2.532183837890625,9.193734169006348,1.4987702369689941,-0.035913024097681046
1773230418930175000,2.548175048828125,9.23682975769043,1.5275006294250488,-0.07422025501728058
1773230418946196000,2.564196044921875,9.354146003723145,1.6280571222305298,-0.05746084079146385
1773230418962187300,2.580187255859375,9.378087997436523,1.6208745241165161,-0.19632454216480255
1773230418978179300,2.596179443359375,9.399636268615723,1.6759412288665771,-0.35434186458587646
1773230418994169900,2.612169921875,9.737217903137207,1.7573440074920654,-0.05506663769483566
1773230419010190800,2.62819091796875,10.153809547424316,1.8195933103561401,-0.12210428714752197
1773230419026183000,2.644182861328125,10.302249908447266,1.8794482946395874,-0.43335050344467163
1773230419042174000,2.660174072265625,9.926360130310059,1.889025092124939,-0.031124621629714966
1773230419058195700,2.67619580078125,9.287108421325684,2.1763293743133545,-0.004788403399288654
1773230419074187500,2.6921875,9.222464561462402,2.2673089504241943,-0.10773907601833344
1773230419090178300,2.70817822265625,9.50498104095459,2.1380221843719482,-0.023942016065120697
1773230419106168800,2.7241689453125,9.583989143371582,2.0422539710998535,0.047884032130241394
1773230419122191000,2.740191162109375,9.636661529541016,2.0853497982025146,0.08140286058187485
1773230419138182700,2.7561826171875,9.765948295593262,2.27209734916687,0.0933738648891449
1773230419154172700,2.772172607421875,9.923966407775879,2.3367409706115723,0.07422025501728058
1773230419170194000,2.78819384765625,10.062829971313477,2.363077163696289,0.11252748221158981
1773230419186187300,2.804187255859375,9.734824180603027,2.233790159225464,0.15322890877723694
1773230419202177000,2.820177001953125,9.454702377319336,2.205059766769409,0.07422025501728058
1773230419218199800,2.83619970703125,9.437943458557129,2.454056739807129,0.031124621629714966
1773230419234190800,2.85219091796875,9.615114212036133,2.5785553455352783,-0.12210428714752197
1773230419250182100,2.86818212890625,9.57201862335205,2.4396915435791016,-0.11971008777618408
1773230419266172200,2.884172119140625,9.354146003723145,2.3247697353363037,-0.047884032130241394
1773230419282195500,2.900195556640625,9.153033256530762,2.382230758666992,-0.15562310814857483
1773230419298184700,2.916184814453125,9.148244857788086,2.382230758666992,-0.14604631066322327
1773230419314176000,2.932176025390625,9.373299598693848,2.248155355453491,-0.15562310814857483
1773230419330199000,2.948198974609375,9.579200744628906,2.2840683460235596,-0.1628057211637497
1773230419346191000,2.964191162109375,9.670180320739746,2.360682964324951,-0.19871874153614044
1773230419362182000,2.980181884765625,9.730035781860352,2.363077163696289,-0.10295066982507706
1773230419378174000,2.996174072265625,9.81143856048584,2.2194249629974365,0.06224924325942993
1773230419394195700,3.01219580078125,9.801861763000488,2.123656988143921,0.06224924325942993
1773230419410186000,3.02818603515625,9.859322547912598,2.1308395862579346,0.009576806798577309
1773230419426177500,3.044177490234375,9.871294021606445,2.0254945755004883,-0.10773907601833344
1773230419442197800,3.06019775390625,9.653421401977539,1.8291701078414917,-0.0071826050989329815
1773230419458190300,3.0761904296875,9.493009567260742,1.7525556087493896,0
1773230419474182100,3.09218212890625,9.41400146484375,1.7286136150360107,-0.1867477297782898
1773230419490172000,3.108171875,9.41639518737793,1.7549498081207275,-0.2513911724090576
1773230419506194700,3.124194580078125,9.636661529541016,1.6424223184585571,-0.19632454216480255
1773230419522186000,3.14018603515625,9.861717224121094,1.5418659448623657,-0.047884032130241394
1773230419538176500,3.156176513671875,9.888052940368652,1.5107412338256836,-0.11971008777618408
1773230419554198800,3.17219873046875,9.643844604492188,1.5107412338256836,-0.1412578970193863
1773230419570190000,3.188190185546875,9.457097053527832,1.4628572463989258,-0.10773907601833344
1773230419586181400,3.204181396484375,9.385271072387695,1.460463047027588,-0.08140286058187485
1773230419602171400,3.22017138671875,9.375694274902344,1.4437036514282227,-0.05746084079146385
1773230419618192600,3.236192626953125,9.397241592407227,1.436521053314209,-0.2106897532939911
1773230419634185700,3.252185791015625,9.555258750915527,1.4772224426269531,-0.1604115068912506
1773230419650175700,3.26817578125,9.801861763000488,1.5394717454910278,-0.2059013396501541
1773230419666196500,3.284196533203125,10.168174743652344,1.5131354331970215,-0.2298433631658554
1773230419682190000,3.300190185546875,9.797073364257812,1.623268723487854,-0.13168109953403473
1773230419698180400,3.316180419921875,9.57441234588623,1.4891934394836426,-0.17238251864910126
1773230419714171600,3.332171630859375,9.579200744628906,1.6328455209732056,-0.035913024097681046
1773230419730193400,3.348193359375,9.718064308166504,1.8507179021835327,-0.028730420395731926
1773230419746184700,3.364184814453125,9.670180320739746,1.8962076902389526,0.05985504388809204
1773230419762176000,3.380176025390625,9.605537414550781,1.8698714971542358,0.12210428714752197
1773230419778196700,3.39619677734375,9.674968719482422,1.9321208000183105,0.2968810200691223
1773230419794187800,3.412187744140625,9.84256362915039,2.0183119773864746,0.36152446269989014
1773230419810180400,3.428180419921875,9.806650161743164,2.0159177780151367,0.304063618183136
1773230419826171600,3.444171630859375,9.75397777557373,2.051830768585205,0.3974374830722809
1773230419842191600,3.460191650390625,9.765948295593262,2.142810583114624,0.3687070608139038
1773230419858184000,3.476183837890625,9.780313491821289,2.1475989818573,0.3232172429561615
1773230419874176000,3.492176025390625,9.643844604492188,2.056619167327881,0.40701428055763245
1773230419890197200,3.508197265625,9.641449928283691,2.183511972427368,0.33039984107017517
1773230419906189300,3.524189208984375,9.550470352172852,2.3343467712402344,0.2059013396501541
1773230419922180600,3.5401806640625,9.437943458557129,2.118868589401245,0.07661445438861847
1773230419938201300,3.556201416015625,9.368511199951172,2.073378562927246,0.12210428714752197
1773230419954193000,3.57219287109375,9.545681953430176,2.118868589401245,0.031124621629714966
1773230419970183400,3.588183349609375,9.488221168518066,2.032677173614502,-0.05267243832349777
1773230419986173000,3.6041728515625,9.473855972290039,1.9943699836730957,-0.10534487664699554
1773230420002197800,3.62019775390625,9.679757118225098,2.0159177780151367,-0.06703764945268631
1773230420018187800,3.636187744140625,9.911994934082031,2.0422539710998535,0.0071826050989329815
1773230420034178300,3.65217822265625,9.964667320251465,1.8794482946395874,0.23942017555236816
1773230420050201600,3.66820166015625,9.988609313964844,1.723825216293335,0.3519476354122162
1773230420066191000,3.684191162109375,9.86889934539795,1.802833914756775,0.3519476354122162
1773230420082182000,3.700181884765625,9.533711433410645,1.7717092037200928,0.19153612852096558
1773230420098174200,3.71617431640625,9.363722801208496,1.6855180263519287,0.17956513166427612
1773230420114197000,3.732197021484375,9.485827445983887,1.6735470294952393,0.272938996553421
1773230420130187800,3.748187744140625,9.653421401977539,1.656787633895874,0.21308395266532898
1773230420146179000,3.764178955078125,9.641449928283691,1.680729627609253,0.11971008777618408
1773230420162200600,3.78020068359375,9.679757118225098,1.623268723487854,-0.014365210197865963
1773230420178191400,3.79619140625,9.988609313964844,1.623268723487854,0.2346317619085312
1773230420194183700,3.81218359375,10.223240852355957,1.5155296325683594,0.21787235140800476
1773230420210173200,3.828173095703125,10.062829971313477,1.381454348564148,0.19871874153614044
1773230420226195200,3.8441953125,9.694122314453125,1.4460978507995605,0.14844051003456116
1773230420242185700,3.860185791015625,9.464279174804688,1.5322890281677246,0.21787235140800476
1773230420258177300,3.87617724609375,9.576807022094727,1.436521053314209,0.19632454216480255
1773230420274199000,3.892198974609375,9.658209800720215,1.292868971824646,0.18914192914962769
1773230420290191000,3.908191162109375,9.730035781860352,1.4221558570861816,0.22266076505184174
1773230420306182000,3.924181884765625,9.567230224609375,1.6352397203445435,0.12210428714752197
1773230420322174700,3.9401748046875,9.481039047241211,1.4963760375976562,0.14365209639072418
1773230420338195700,3.95619580078125,9.430760383605957,1.3479355573654175,0.2059013396501541
1773230420354186800,3.972186767578125,9.557653427124023,1.3479355573654175,0.1867477297782898
1773230420370177500,3.988177490234375,9.835380554199219,1.5658079385757446,0.07182604819536209
1773230420386200600,4.00420068359375,9.696516990661621,1.7860745191574097,-0.0071826050989329815
1773230420402188500,4.0201884765625,9.2033109664917,1.7262194156646729,-0.014365210197865963
1773230420418182700,4.0361826171875,9.165003776550293,1.6855180263519287,0.06703764945268631
1773230420434173200,4.052173095703125,9.612719535827637,1.7597382068634033,0.023942016065120697
1773230420450194400,4.0681943359375,10.007762908935547,1.9752163887023926,-0.09576806426048279
1773230420466187500,4.0841875,9.940725326538086,2.051830768585205,-0.11252748221158981
1773230420482178000,4.100177978515625,9.564835548400879,2.049436569213867,0.016759412363171577
1773230420498200600,4.11620068359375,9.457097053527832,1.98958158493042,0.009576806798577309
1773230420514190300,4.1321904296875,9.560047149658203,1.9823989868164062,0.17477671802043915
1773230420530183000,4.148182861328125,9.742006301879883,2.142810583114624,0.16519992053508759
1773230420546171400,4.16417138671875,9.797073364257812,2.250549554824829,0
1773230420562195700,4.18019580078125,9.643844604492188,2.1930887699127197,0.1173158809542656
1773230420578186200,4.196186279296875,9.466673851013184,2.1715409755706787,0.2082955539226532
1773230420594178000,4.212177978515625,9.624691009521484,2.145204782485962,0.1388636976480484
1773230420610199000,4.228198974609375,9.773131370544434,2.0661959648132324,0.1867477297782898
1773230420626189800,4.24418994140625,9.727641105651855,2.1787235736846924,0.12449848651885986
1773230420642180600,4.2601806640625,9.59835433959961,2.2218191623687744,0.11252748221158981
1773230420658202600,4.27620263671875,9.643844604492188,2.0398597717285156,0.1173158809542656
1773230420674193700,4.292193603515625,9.543288230895996,2.0853497982025146,0.16998831927776337
1773230420690185700,4.308185791015625,9.473855972290039,2.0661959648132324,0.11013327538967133
1773230420706175200,4.32417529296875,9.469067573547363,1.9057846069335938,0.1867477297782898
1773230420722198500,4.340198486328125,9.437943458557129,1.8986018896102905,0.16759411990642548
1773230420738188800,4.356188720703125,9.552865028381348,1.9512743949890137,0.10055647045373917
1773230420754181000,4.37218115234375,9.703699111938477,1.886630892753601,0.038307227194309235
1773230420770203000,4.388202880859375,9.859322547912598,1.8315643072128296,0.09816227108240128
1773230420786192400,4.4041923828125,9.897629737854004,1.845929503440857,0.24899697303771973
1773230420802186200,4.420186279296875,9.888052940368652,1.721431016921997,0.21787235140800476
1773230420818175500,4.436175537109375,9.806650161743164,1.678335428237915,0.19393034279346466
1773230420834197500,4.452197509765625,9.713275909423828,1.6543933153152466,0.2537853717803955
1773230420850189000,4.46818896484375,9.66299819946289,1.6352397203445435,0.1149216815829277
1773230420866182000,4.484181884765625,9.5408935546875,1.6280571222305298,0.10055647045373917
1773230420882171600,4.500171630859375,9.497797966003418,1.623268723487854,0.10295066982507706
1773230420898194200,4.516194091796875,9.495404243469238,1.6112977266311646,-0.019153613597154617
1773230420914184200,4.53218408203125,9.406818389892578,1.5705963373184204,-0.07661445438861847
1773230420930176000,4.548176025390625,9.361329078674316,1.558625340461731,-0.10295066982507706
1773230420946196200,4.5641962890625,9.445125579833984,1.5059528350830078,-0.17477671802043915
1773230420962189300,4.580189208984375,9.5624418258667,1.4963760375976562,-0.021547814831137657
1773230420978180400,4.596180419921875,9.825803756713867,1.6065093278884888,-0.026336219161748886
1773230420994172200,4.612172119140625,9.691728591918945,1.5514427423477173,-0.05746084079146385
1773230421010193000,4.62819287109375,9.624691009521484,1.4077905416488647,0.09816227108240128
1773230421026184400,4.644184326171875,9.768342971801758,1.644816517829895,0.014365210197865963
1773230421042175200,4.66017529296875,9.727641105651855,1.7717092037200928,-0.14604631066322327
1773230421058198500,4.676198486328125,9.485827445983887,1.6927006244659424,-0.12210428714752197
1773230421074188300,4.692188232421875,9.349357604980469,1.7525556087493896,-0.05506663769483566
1773230421090179800,4.708179931640625,9.725247383117676,1.8842366933822632,-0.19871874153614044
1773230421106202600,4.72420263671875,9.928754806518555,1.8411411046981812,-0.3064578175544739
1773230421122193000,4.74019287109375,9.718064308166504,1.9105730056762695,-0.181959331035614
1773230421138183200,4.75618310546875,9.864110946655273,1.9512743949890137,-0.06224924325942993
1773230421154176300,4.77217626953125,10.005369186401367,1.8722656965255737,0.019153613597154617
1773230421170196700,4.78819677734375,9.80904483795166,1.8100165128707886,-0.06703764945268631
1773230421186188000,4.80418798828125,9.53849983215332,2.03507137298584,0.17238251864910126
1773230421202179600,4.8201796875,9.696516990661621,2.142810583114624,0.0454898327589035
1773230421218200600,4.83620068359375,9.765948295593262,2.0254945755004883,-0.031124621629714966
1773230421234193200,4.852193115234375,9.509769439697266,1.6879122257232666,0.19871874153614044
1773230421250182700,4.8681826171875,9.545681953430176,1.8986018896102905,0.17477671802043915
1773230421266175200,4.88417529296875,9.830592155456543,2.2170307636260986,-0.08619125932455063
1773230421282197500,4.900197509765625,9.80904483795166,2.073378562927246,0
1773230421298188500,4.9161884765625,9.452308654785156,1.8626888990402222,0.1388636976480484
1773230421314179800,4.932179931640625,9.461885452270508,1.9560627937316895,0.028730420395731926
1773230421330200300,4.948200439453125,9.718064308166504,2.1380221843719482,0.13407529890537262
1773230421346191400,4.96419140625,9.552865028381348,2.051830768585205,0.031124621629714966
1773230421362182100,4.98018212890625,9.227252960205078,1.968033790588379,0.0694318488240242
1773230421378175000,4.996175048828125,9.361329078674316,1.8507179021835327,0.14604631066322327
1773230421394195500,5.012195556640625,9.765948295593262,1.9704279899597168,0.22266076505184174
1773230421410187500,5.0281875,9.591172218322754,2.0398597717285156,0.09816227108240128
1773230421426178800,5.0441787109375,9.07641887664795,1.7693150043487549,0.2537853717803955
1773230421442170600,5.060170654296875,8.990227699279785,1.6663644313812256,0.28730419278144836
1773230421458192400,5.0761923828125,9.485827445983887,1.8507179021835327,0.33518823981285095
1773230421474180400,5.092180419921875,9.75637149810791,2.049436569213867,0.16759411990642548
1773230421490174000,5.108174072265625,9.742006301879883,1.9536685943603516,0.1149216815829277
1773230421506195500,5.124195556640625,9.706093788146973,1.8171991109848022,0.38067805767059326
1773230421522187500,5.1401875,9.921571731567383,1.8842366933822632,0.33039984107017517
1773230421538177300,5.15617724609375,10.055646896362305,1.9369091987609863,0.2513911724090576
1773230421554200000,5.172199951171875,9.806650161743164,1.7980455160140991,0.1867477297782898
1773230421570190800,5.18819091796875,9.442731857299805,1.7262194156646729,0.15083470940589905
1773230421586183700,5.20418359375,9.344569206237793,1.6352397203445435,0.05027823522686958
1773230421602174700,5.2201748046875,9.375694274902344,1.778891921043396,-0.0454898327589035
1773230421618195700,5.23619580078125,9.545681953430176,1.7908629179000854,-0.12210428714752197
1773230421634185500,5.252185546875,9.732429504394531,1.745373010635376,-0.014365210197865963
1773230421650177800,5.268177734375,9.732429504394531,1.6328455209732056,0.11013327538967133
1773230421666200300,5.284200439453125,9.799467086791992,1.558625340461731,0.10295066982507706
1773230421682192000,5.30019189453125,9.763554573059082,1.7286136150360107,0.2346317619085312
1773230421698181600,5.316181640625,9.543288230895996,1.9249382019042969,-0.023942016065120697
1773230421714174000,5.332174072265625,9.246406555175781,1.9919757843017578,0.1412578970193863
1773230421730195500,5.348195556640625,9.466673851013184,1.867477297782898,0.13407529890537262
1773230421746187000,5.36418701171875,9.694122314453125,1.8579005002975464,0.07182604819536209
1773230421762177300,5.38017724609375,9.519346237182617,1.7932571172714233,-0.07661445438861847
1773230421778200300,5.396200439453125,9.421183586120605,1.8579005002975464,-0.028730420395731926
1773230421794191000,5.412191162109375,9.47146224975586,2.0207061767578125,-0.19393034279346466
1773230421810181400,5.428181396484375,9.361329078674316,2.011129379272461,-0.31124621629714966
1773230421826204200,5.4442041015625,9.411606788635254,1.9847931861877441,-0.2298433631658554
1773230421842193400,5.460193359375,9.653421401977539,2.078166961669922,-0.1604115068912506
1773230421858186800,5.476186767578125,9.938331604003906,2.0398597717285156,-0.043095629662275314
1773230421874177800,5.492177734375,9.765948295593262,1.920149803161621,-0.15322890877723694
1773230421890199600,5.508199462890625,9.57201862335205,1.802833914756775,-0.05506663769483566
1773230421906189000,5.52418896484375,9.694122314453125,1.920149803161621,0.047884032130241394
1773230421922181000,5.54018115234375,9.892841339111328,2.1763293743133545,0.0454898327589035
1773230421938203600,5.55620361328125,9.579200744628906,2.2170307636260986,-0.22026655077934265
1773230421954195200,5.5721953125,8.995016098022461,2.0925323963165283,-0.2059013396501541
1773230421970184700,5.588184814453125,9.466673851013184,2.2194249629974365,-0.040701430290937424
1773230421986176800,5.6041767578125,10.122684478759766,2.3343467712402344,-0.028730420395731926
1773230422002198500,5.620198486328125,10.218452453613281,2.274491548538208,-0.023942016065120697
1773230422018188800,5.636188720703125,9.682151794433594,2.1763293743133545,0.1173158809542656
1773230422034180000,5.65218017578125,9.593565940856934,2.205059766769409,0.17477671802043915
1773230422050203000,5.668202880859375,9.66299819946289,2.126051187515259,0.09816227108240128
1773230422066195000,5.68419482421875,9.210494041442871,1.8914192914962769,0.043095629662275314
1773230422082185500,5.700185546875,9.150638580322266,2.0805611610412598,0.035913024097681046
1773230422098175500,5.716175537109375,9.720458984375,2.1571757793426514,-0.019153613597154617
1773230422114198000,5.732197998046875,9.9000244140625,2.142810583114624,-0.17238251864910126
1773230422130188800,5.748188720703125,9.806650161743164,1.987187385559082,-0.028730420395731926
1773230422146180600,5.7641806640625,10.038887977600098,1.9177556037902832,0.1173158809542656
1773230422162202400,5.780202392578125,10.093954086303711,1.8531121015548706,0.11013327538967133
1773230422178194200,5.796194091796875,9.749189376831055,1.9776105880737305,0.1149216815829277
1773230422194185000,5.81218505859375,9.370905876159668,1.9584569931030273,-0.033518824726343155
1773230422210176300,5.82817626953125,9.428366661071777,1.8602946996688843,0.07422025501728058
1773230422226198000,5.844197998046875,9.904812812805176,1.8938134908676147,0.0694318488240242
1773230422242188000,5.86018798828125,9.732429504394531,1.7956513166427612,0.13168109953403473
1773230422258179000,5.876178955078125,9.655815124511719,1.7118542194366455,0.2801215946674347
1773230422274200800,5.892200927734375,9.349357604980469,1.7884687185287476,0.0071826050989329815
1773230422290122500,5.90812255859375,9.279925346374512,1.98958158493042,-0.09576806426048279
1773230422306115300,5.924115234375,9.196128845214844,1.8411411046981812,0.05027823522686958
1773230422322105000,5.94010498046875,9.071630477905273,1.7310078144073486,0.0071826050989329815
1773230422334097400,5.952097412109375,9.246406555175781,1.7812861204147339,0.1843535304069519
1773230422350122200,5.968122314453125,9.459490776062012,1.9273324012756348,0.019153613597154617
1773230422366111700,5.98411181640625,9.57441234588623,2.0159177780151367,-0.026336219161748886
1773230422382103300,6.000103271484375,9.516951560974121,1.946485996246338,0.038307227194309235
1773230422398124000,6.0161240234375,9.730035781860352,1.9584569931030273,0.06703764945268631
1773230422414115600,6.032115478515625,9.959878921508789,2.027888774871826,0.07900865375995636
1773230422430108400,6.0481083984375,9.837775230407715,1.98958158493042,0.05267243832349777
1773230422445561900,6.063561767578125,9.59835433959961,1.941697597503662,0.08858546614646912
1773230422462120700,6.08012060546875,9.557653427124023,2.0614075660705566,0.12928688526153564
1773230422478111200,6.096111328125,9.588777542114258,2.1523873805999756,0.05506663769483566
1773230422494104000,6.11210400390625,9.440337181091309,2.0877439975738525,-0.009576806798577309
1773230422510122500,6.12812255859375,9.29189682006836,1.9728221893310547,0.06224924325942993
1773230422526113800,6.14411376953125,9.320627212524414,1.9321208000183105,-0.002394201699644327
1773230422542106400,6.1601064453125,9.564835548400879,1.9512743949890137,-0.021547814831137657
1773230422558127000,6.176127197265625,9.672574996948242,2.1787235736846924,-0.22026655077934265
1773230422574120000,6.192119873046875,9.75397777557373,2.22660756111145,-0.19153612852096558
1773230422590110500,6.2081103515625,9.988609313964844,2.1739351749420166,0.10534487664699554
1773230422606132200,6.22413232421875,10.113107681274414,2.2170307636260986,0.2082955539226532
1773230422622123000,6.240123046875,10.144232749938965,2.1523873805999756,0.30885201692581177
1773230422638113500,6.256113525390625,9.744400978088379,2.169146776199341,0.08140286058187485
1773230422654103800,6.272103759765625,9.258378028869629,1.9967641830444336,0.13168109953403473
1773230422670128400,6.28812841796875,9.227252960205078,2.142810583114624,0.047884032130241394
1773230422686119000,6.304118896484375,9.469067573547363,2.255337953567505,-0.12928688526153564
1773230422702108700,6.320108642578125,9.765948295593262,2.0590133666992188,-0.16998831927776337
1773230422714104000,6.33210400390625,9.880870819091797,2.161964178085327,-0.004788403399288654
1773230422726128400,6.34412841796875,10.187328338623047,2.248155355453491,0
1773230422742118700,6.36011865234375,10.599130630493164,2.166752576828003,0.17956513166427612
1773230422758108200,6.376108154296875,10.316615104675293,1.9177556037902832,0.2537853717803955
1773230422774131200,6.392131103515625,9.521739959716797,1.9321208000183105,0.26336219906806946
1773230422790122800,6.408122802734375,9.193734169006348,1.98958158493042,0.3016694188117981
1773230422806112000,6.424112060546875,9.339780807495117,1.9081788063049316,0.08379705995321274
1773230422822104800,6.440104736328125,9.248801231384277,1.802833914756775,0.033518824726343155
1773230422838127400,6.45612744140625,9.196128845214844,1.800439715385437,-0.033518824726343155
1773230422854116000,6.4721162109375,9.500192642211914,1.8339585065841675,-0.2059013396501541
1773230422870109200,6.488109130859375,9.749189376831055,1.7860745191574097,-0.0454898327589035
1773230422886129400,6.50412939453125,9.876082420349121,1.7573440074920654,0.0933738648891449
1773230422902121200,6.520121337890625,9.765948295593262,1.821987509727478,0.1628057211637497
1773230422914116400,6.532116455078125,9.658209800720215,1.7956513166427612,0.19393034279346466
1773230422926109000,6.54410888671875,9.399636268615723,1.7381904125213623,0.22026655077934265
1773230422942130400,6.56013037109375,9.121908187866211,1.7812861204147339,0.33518823981285095
1773230422958121500,6.57612158203125,9.107542991638184,1.800439715385437,0.2346317619085312
1773230422974112800,6.59211279296875,9.004592895507812,1.6855180263519287,0.26815059781074524
1773230422990104000,6.60810400390625,8.834604263305664,1.6879122257232666,0.2513911724090576
1773230423006124800,6.624124755859375,8.980650901794434,1.821987509727478,0.08858546614646912
1773230423022116900,6.640116943359375,9.313444137573242,1.8363527059555054,0.08379705995321274
1773230423038107400,6.656107421875,9.591172218322754,1.8507179021835327,0.07661445438861847
1773230423054128000,6.672128173828125,9.560047149658203,1.900996208190918,0.0933738648891449
1773230423070122200,6.688122314453125,9.488221168518066,1.8579005002975464,0.12928688526153564
1773230423086112000,6.704112060546875,9.44752025604248,1.9512743949890137,0.19393034279346466
1773230423102101200,6.720101318359375,9.464279174804688,2.027888774871826,0.15322890877723694
1773230423118123800,6.736123779296875,9.605537414550781,2.205059766769409,0.14844051003456116
1773230423134115600,6.752115478515625,10.103530883789062,2.293645143508911,0.1412578970193863
1773230423150108400,6.7681083984375,10.639832496643066,2.2816741466522217,0.26815059781074524
1773230423166127400,6.78412744140625,10.520122528076172,2.2409727573394775,0.3663128614425659
1773230423182118700,6.80011865234375,10.441113471984863,2.3726539611816406,0.4213795065879822
1773230423198111500,6.816111572265625,10.156203269958496,2.4468741416931152,0.42377370595932007
1773230423214102300,6.832102294921875,9.725247383117676,2.3511061668395996,0.30885201692581177
1773230423230124500,6.84812451171875,9.3828763961792,2.298433542251587,0.20350714027881622
1773230423246115000,6.864114990234375,9.57441234588623,2.1308395862579346,0.13168109953403473
1773230423262107100,6.880107177734375,9.864110946655273,2.341529369354248,-0.22744916379451752
1773230423278130200,6.896130126953125,9.832986831665039,2.535459518432617,-0.3878606855869293
1773230423294118700,6.91211865234375,9.919178009033203,2.2457611560821533,-0.2849099934101105
1773230423310111200,6.928111328125,10.139444351196289,2.075772762298584,-0.040701430290937424
1773230423322103000,6.94010302734375,10.189722061157227,2.22660756111145,0.08379705995321274
1773230423334127600,6.952127685546875,9.670180320739746,2.231395959854126,0.004788403399288654
1773230423350119700,6.96811962890625,8.760383605957031,1.867477297782898,-0.004788403399288654
1773230423366109200,6.984109130859375,8.221688270568848,1.86508309841156,0.05267243832349777
1773230423382100700,7.000100830078125,8.255207061767578,2.248155355453491,-0.17238251864910126
1773230423398122800,7.016122802734375,8.892065048217773,2.2409727573394775,-0.24420857429504395
1773230423414112300,7.0321123046875,8.96149730682373,1.965639591217041,-0.2801215946674347
1773230423430106000,7.048106201171875,9.495404243469238,2.078166961669922,-0.08619125932455063
1773230423446128600,7.064128662109375,10.36449909210205,2.3511061668395996,-0.12689268589019775
1773230423462118000,7.080117919921875,10.493785858154297,2.2242133617401123,-0.33997663855552673
1773230423478109000,7.09610888671875,9.770736694335938,2.0638017654418945,-0.19393034279346466
1773230423494101800,7.112101806640625,9.418789863586426,2.032677173614502,-0.1364694982767105
1773230423510123300,7.128123291015625,9.478644371032715,2.0925323963165283,-0.2561795711517334
1773230423526114600,7.144114501953125,9.366117477416992,1.8770540952682495,-0.2561795711517334
1773230423542105000,7.16010498046875,9.481039047241211,1.8195933103561401,-0.26575639843940735
1773230423558126300,7.176126220703125,10.02452278137207,1.9273324012756348,-0.36152446269989014
1773230423574118000,7.192117919921875,10.496180534362793,1.8914192914962769,-0.31603461503982544
1773230423590110000,7.20810986328125,10.398017883300781,1.86508309841156,-0.035913024097681046
1773230423606131500,7.22413134765625,10.127472877502441,1.8363527059555054,-0.009576806798577309
1773230423622121200,7.240121337890625,9.773131370544434,1.7166426181793213,0.15322890877723694
1773230423638114800,7.25611474609375,9.509769439697266,1.5394717454910278,0.26575639843940735
1773230423654103000,7.27210302734375,9.330204010009766,1.7286136150360107,0.15801730751991272
1773230423670127600,7.288127685546875,9.334992408752441,1.965639591217041,-0.12210428714752197
1773230423686116400,7.304116455078125,9.102754592895508,1.8914192914962769,-0.05985504388809204
1773230423702108700,7.320108642578125,9.126696586608887,1.800439715385437,0.031124621629714966
1773230423718128600,7.336128662109375,9.476250648498535,1.941697597503662,0.11013327538967133
1773230423734120400,7.352120361328125,9.751583099365234,1.9704279899597168,0.21308395266532898
1773230423750113500,7.368113525390625,9.454702377319336,2.0159177780151367,0.24181437492370605
1773230423766102300,7.384102294921875,8.959102630615234,2.0039467811584473,0.16759411990642548
1773230423782124000,7.4001240234375,9.057265281677246,1.9728221893310547,0.15322890877723694
1773230423798116600,7.41611669921875,9.47146224975586,2.054224967956543,0.14844051003456116
1773230423814107000,7.43210693359375,9.785101890563965,2.164358377456665,0.1149216815829277
1773230423830130400,7.44813037109375,9.794678688049316,2.0207061767578125,0.0933738648891449
1773230423846119700,7.46411962890625,9.593565940856934,1.8986018896102905,0.038307227194309235
1773230423862111700,7.48011181640625,9.452308654785156,1.9608511924743652,0.1628057211637497
1773230423878102000,7.49610205078125,9.674968719482422,2.0159177780151367,0.13407529890537262
1773230423894123300,7.512123291015625,9.751583099365234,2.008735179901123,0.2513911724090576
1773230423910116000,7.5281162109375,9.62947940826416,2.1332337856292725,0.05267243832349777
1773230423926106600,7.544106689453125,9.370905876159668,2.1380221843719482,-0.031124621629714966
1773230423942128600,7.560128662109375,9.346963882446289,1.944091796875,-0.05746084079146385
1773230423958117600,7.57611767578125,9.679757118225098,1.9249382019042969,0.33518823981285095
1773230423974111700,7.59211181640625,10.055646896362305,2.2361843585968018,0.040701430290937424
1773230423990102000,7.60810205078125,9.636661529541016,2.10210919380188,0.06703764945268631
1773230424006124000,7.6241240234375,9.296685218811035,1.7334020137786865,0.1412578970193863
1773230424022114600,7.640114501953125,9.337387084960938,1.8124107122421265,0.14604631066322327
1773230424038104800,7.656104736328125,9.66299819946289,1.8291701078414917,-0.002394201699644327
1773230424054127900,7.6721279296875,9.66299819946289,1.8100165128707886,-0.0454898327589035
1773230424070119200,7.688119140625,9.679757118225098,1.9584569931030273,-0.24660277366638184
1773230424086108700,7.704108642578125,10.067618370056152,1.702277421951294,0.08140286058187485
1773230424102101800,7.720101806640625,10.335768699645996,1.5969325304031372,0.0933738648891449
1773230424118122000,7.7361220703125,10.06043529510498,1.6041151285171509,0.004788403399288654
1773230424134112800,7.75211279296875,9.68933391571045,1.3694833517074585,0.10534487664699554
1773230424150105000,7.76810498046875,9.720458984375,1.434126853942871,-0.08379705995321274
1773230424166127000,7.784127197265625,9.797073364257812,1.4939818382263184,-0.21547815203666687
1773230424182118000,7.800117919921875,9.727641105651855,1.2042834758758545,-0.14365209639072418
1773230424198109400,7.816109375,9.792284965515137,1.1276689767837524,-0.21787235140800476
1773230424214099200,7.83209912109375,9.888052940368652,1.37906014919281,-0.28969839215278625
1773230424226125300,7.844125244140625,9.964667320251465,1.3287819623947144,-0.14844051003456116
1773230424238117000,7.8561171875,9.792284965515137,1.192312479019165,-0.11252748221158981
1773230424254109700,7.872109619140625,9.29189682006836,0.9768342971801758,0.002394201699644327
1773230424270101200,7.888101318359375,9.435548782348633,0.871489405632019,0.20350714027881622
1773230424286122000,7.9041220703125,9.260771751403809,1.115697979927063,0.040701430290937424
1773230424298115600,7.916115478515625,8.99740982055664,1.216254472732544,-0.14365209639072418
1773230424310110000,7.92810986328125,8.69095230102539,1.2641384601593018,-0.19153612852096558
1773230424326100000,7.944099853515625,8.700529098510742,1.278503656387329,-0.15562310814857483
1773230424342123300,7.960123291015625,9.488221168518066,1.2449848651885986,0.2082955539226532
1773230424358111500,7.976111572265625,10.08198356628418,1.5275006294250488,0.15083470940589905
1773230424374102300,7.992102294921875,9.883264541625977,1.525106430053711,0.17477671802043915
1773230424390123800,8.008123779296875,9.279925346374512,1.3096283674240112,0.2082955539226532
1773230424406115800,8.02411572265625,9.162610054016113,1.37906014919281,0.08140286058187485
1773230424422108200,8.040108154296876,9.713275909423828,1.7286136150360107,-0.10295066982507706
1773230424438099200,8.05609912109375,10.278307914733887,1.7741034030914307,-0.08619125932455063
1773230424454121000,8.072120849609375,10.496180534362793,1.6543933153152466,0.10773907601833344
1773230424470114000,8.088114013671875,10.359710693359375,1.5753847360610962,0.20111294090747833
1773230424486102000,8.10410205078125,9.880870819091797,1.5514427423477173,0.10534487664699554
1773230424502126600,8.120126708984374,9.26795482635498,1.4437036514282227,0.05267243832349777
1773230424518116600,8.13611669921875,8.935160636901855,1.1779472827911377,0.1412578970193863
1773230424534107400,8.152107421875,8.983044624328613,1.235408067703247,0.1364694982767105
1773230424550129200,8.168129150390625,9.141061782836914,1.5059528350830078,-0.3687070608139038
1773230424566120400,8.184120361328125,9.20091724395752,1.4987702369689941,-0.49320554733276367
1773230424582111500,8.200111572265625,9.770736694335938,1.1348515748977661,-0.11013327538967133
1773230424598103300,8.216103271484375,10.72841739654541,1.292868971824646,-0.0454898327589035
1773230424614122800,8.232122802734375,10.759542465209961,1.6136919260025024,-0.19153612852096558
1773230424630116400,8.248116455078126,10.062829971313477,1.479616641998291,0.08619125932455063
1773230424646108400,8.2641083984375,9.746794700622559,1.45806884765625,0.12928688526153564
1773230424662097200,8.28009716796875,9.847352027893066,1.599326729774475,0.023942016065120697
1773230424678120400,8.296120361328125,9.80904483795166,1.6400281190872192,-0.10773907601833344
1773230424694111500,8.312111572265625,9.639056205749512,1.7597382068634033,-0.1412578970193863
1773230424710102000,8.32810205078125,10.002974510192871,1.802833914756775,-0.19393034279346466
1773230424726124800,8.344124755859376,10.402806282043457,1.659181833267212,-0.016759412363171577
1773230424742114000,8.360114013671875,10.170568466186523,1.4484920501708984,0.016759412363171577
1773230424758106000,8.376106201171876,9.727641105651855,1.4053963422775269,0.1388636976480484
1773230424774125800,8.392125732421874,9.710882186889648,1.5394717454910278,0
1773230424790120200,8.4081201171875,9.47146224975586,1.5466543436050415,-0.15801730751991272
1773230424806108700,8.424108642578124,9.004592895507812,1.3024457693099976,-0.026336219161748886
1773230424818102000,8.43610205078125,8.93037223815918,1.1252747774124146,-0.05027823522686958
1773230424830128600,8.448128662109376,9.131484985351562,1.2018892765045166,-0.13407529890537262
1773230424846117400,8.464117431640625,9.672574996948242,1.5083470344543457,-0.4141969084739685
1773230424862109000,8.48010888671875,9.923966407775879,1.5203180313110352,-0.3902548849582672
1773230424878100700,8.496100830078126,9.943120002746582,1.3527239561080933,-0.17477671802043915
1773230424894123300,8.512123291015625,10.062829971313477,1.3407529592514038,0.11971008777618408
1773230424910115300,8.528115234375,9.864110946655273,1.37906014919281,0.12689268589019775
1773230424926104800,8.544104736328125,9.260771751403809,1.3862427473068237,0.0694318488240242
1773230424942126600,8.560126708984376,8.908824920654297,1.37906014919281,0.035913024097681046
1773230424958117000,8.5761171875,9.038111686706543,1.5203180313110352,0.0071826050989329815
1773230424974109400,8.592109375,9.198522567749023,1.6089035272598267,0.038307227194309235
1773230424990101800,8.608101806640626,9.157821655273438,1.5107412338256836,0.18914192914962769
1773230425006122000,8.6241220703125,9.167398452758789,1.290474772453308,0.22266076505184174
1773230425022113300,8.64011328125,9.370905876159668,1.1755530834197998,0.31603461503982544
1773230425038102800,8.656102783203124,9.761159896850586,1.3766659498214722,0.05506663769483566
1773230425054126000,8.6721259765625,9.923966407775879,1.5203180313110352,-0.1364694982767105
1773230425070118100,8.6881181640625,9.837775230407715,1.2976573705673218,0.009576806798577309
1773230425086106600,8.704106689453125,9.794678688049316,1.1444283723831177,0.2106897532939911
1773230425102100000,8.720099853515626,9.99100399017334,1.4437036514282227,0.06464344263076782
1773230425114124500,8.73212451171875,10.127472877502441,1.6711528301239014,0.004788403399288654
1773230425126118700,8.74411865234375,10.192116737365723,1.7932571172714233,0.011971008032560349
1773230425142107400,8.760107421875,9.90241813659668,1.53707754611969,0.20350714027881622
1773230425158098200,8.77609814453125,9.63187313079834,1.290474772453308,0.3280056416988373
1773230425174119200,8.792119140625,9.344569206237793,1.3766659498214722,0.06703764945268631
1773230425190112300,8.8081123046875,9.373299598693848,1.680729627609253,-0.27054479718208313
1773230425206103600,8.824103515625,9.588777542114258,1.5897499322891235,-0.2561795711517334
1773230425222124800,8.840124755859375,10.000580787658691,1.4101848602294922,-0.028730420395731926
1773230425234118100,8.8521181640625,10.15141487121582,1.3910311460494995,-0.0454898327589035
1773230425246111700,8.86411181640625,9.981427192687988,1.3646949529647827,-0.0933738648891449
1773230425262103000,8.88010302734375,9.579200744628906,1.1468225717544556,-0.10534487664699554
1773230425278124500,8.89612451171875,9.593565940856934,1.290474772453308,0.0694318488240242
1773230425294114600,8.912114501953125,9.57441234588623,1.5969325304031372,-0.12210428714752197
1773230425310107400,8.928107421875,9.627084732055664,1.5610195398330688,-0.2082955539226532
1773230425326099000,8.944098876953126,9.466673851013184,1.6496049165725708,-0.19632454216480255
1773230425342120400,8.960120361328125,9.794678688049316,1.6424223184585571,0.033518824726343155
1773230425358109400,8.976109375,10.407594680786133,1.556231141090393,0.05985504388809204
1773230425370106400,8.9881064453125,10.347740173339844,1.5610195398330688,-0.08140286058187485
1773230425382098700,9.0000986328125,9.761159896850586,1.479616641998291,0.004788403399288654
1773230425398118100,9.0161181640625,9.277531623840332,1.3024457693099976,0.07661445438861847
1773230425414110700,9.03211083984375,9.478644371032715,1.479616641998291,-0.304063618183136
1773230425430101800,9.048101806640625,9.885659217834473,1.3886369466781616,-0.2322375625371933
1773230425446124800,9.064124755859375,10.223240852355957,1.3215993642807007,-0.1628057211637497
1773230425462114300,9.0801142578125,10.134655952453613,1.4317326545715332,-0.19393034279346466
1773230425478105000,9.09610498046875,9.694122314453125,1.2210428714752197,-0.0694318488240242
1773230425494097400,9.112097412109375,9.363722801208496,1.1540051698684692,0.1149216815829277
1773230425510120400,9.128120361328126,9.188945770263672,1.2258312702178955,0.10773907601833344
1773230425526110200,9.144110107421875,9.169792175292969,1.192312479019165,0.06703764945268631
1773230425542101500,9.1601015625,9.141061782836914,1.3718775510787964,-0.08140286058187485
1773230425558121700,9.176121826171874,9.124302864074707,1.434126853942871,-0.17238251864910126
1773230425574113000,9.192113037109374,9.208099365234375,1.4317326545715332,-0.05027823522686958
1773230425590105900,9.20810595703125,9.610325813293457,1.50355863571167,0.05746084079146385
1773230425602098700,9.2200986328125,9.885659217834473,1.5610195398330688,0.15562310814857483
1773230425614122800,9.232122802734375,10.005369186401367,1.580173134803772,0.20350714027881622
1773230425630115600,9.248115478515626,9.909601211547852,1.5107412338256836,0.18914192914962769
1773230425646104800,9.264104736328125,9.816226959228516,1.4772224426269531,0.1364694982767105
1773230425662095400,9.280095458984375,9.923966407775879,1.3982137441635132,0.05506663769483566
1773230425678118700,9.29611865234375,10.18493366241455,1.3000515699386597,0.05506663769483566
1773230425694108400,9.3121083984375,10.551246643066406,1.2449848651885986,0.016759412363171577
1773230425710101200,9.328101318359375,10.714052200317383,1.1683704853057861,-0.10055647045373917
1773230425726122800,9.344122802734375,10.481815338134766,0.7996633648872375,-0.08858546614646912
1773230425742111700,9.36011181640625,9.971850395202637,0.44771572947502136,-0.0694318488240242
1773230425758104600,9.3761044921875,9.39245319366455,0.22266076505184174,-0.05506663769483566
1773230425774124800,9.392124755859374,9.351752281188965,0.304063618183136,0.05267243832349777
1773230425790118400,9.408118408203125,9.495404243469238,0.586579442024231,-0.2561795711517334
1773230425806109400,9.424109375,9.627084732055664,0.5985504388809204,-0.272938996553421
1773230425822098400,9.440098388671874,9.742006301879883,0.45489832758903503,-0.11971008777618408
1773230425838119400,9.456119384765625,9.832986831665039,0.47644615173339844,-0.11971008777618408
1773230425854112000,9.472112060546875,9.495404243469238,0.31603461503982544,-0.15322890877723694
1773230425870105000,9.48810498046875,9.351752281188965,0.12928688526153564,-0.004788403399288654
1773230425886126000,9.5041259765625,9.428366661071777,0.44771572947502136,0.0694318488240242
1773230425902115000,9.520114990234376,9.421183586120605,0.5554547905921936,-0.15322890877723694
1773230425914111000,9.532111083984375,9.174580574035645,0.40940847992897034,-0.07661445438861847
1773230425926103800,9.544103759765624,8.956708908081055,0.3208230137825012,0.0071826050989329815
1773230425942125000,9.560125,9.246406555175781,0.6368576288223267,-0.20111294090747833
1773230425954119700,9.57211962890625,9.677363395690918,0.6871358752250671,-0.33279404044151306
1773230425966111500,9.584111572265625,9.971850395202637,0.6344634294509888,-0.38307225704193115
1773230425982102000,9.60010205078125,10.096348762512207,0.7876923680305481,-0.2944868206977844
1773230425998123800,9.616123779296874,10.395624160766602,0.9768342971801758,-0.31603461503982544
1773230426014116000,9.6321162109375,10.357316970825195,1.01753568649292,-0.090979665517807
1773230426030106600,9.648106689453124,9.931148529052734,1.1516109704971313,-0.0454898327589035
1773230426046097000,9.664096923828126,9.8784761428833,1.2761094570159912,-0.038307227194309235
1773230426062120200,9.6801201171875,9.861717224121094,1.5155296325683594,0.004788403399288654
1773230426078109200,9.696109130859375,9.531316757202148,1.5705963373184204,-0.12689268589019775
1773230426094102300,9.712102294921875,9.528923034667969,1.867477297782898,-0.10295066982507706
1773230426110125000,9.728125,9.375694274902344,2.1811177730560303,-0.1364694982767105
1773230426126114000,9.744114013671876,9.162610054016113,2.1787235736846924,0.05506663769483566
1773230426142107000,9.76010693359375,9.306262016296387,2.2649147510528564,-0.07900865375995636
1773230426158098200,9.77609814453125,9.452308654785156,2.406172752380371,0.21308395266532898
1773230426174118700,9.79211865234375,9.349357604980469,2.7078421115875244,0.004788403399288654
1773230426190109000,9.80810888671875,9.272743225097656,3.090914487838745,-0.08619125932455063
1773230426206102300,9.824102294921875,9.6989107131958,3.3207578659057617,-0.17956513166427612
1773230426222121500,9.84012158203125,9.959878921508789,3.160346269607544,-0.0694318488240242
1773230426238112800,9.85611279296875,10.06043529510498,2.964021682739258,0.10055647045373917
1773230426254105300,9.872105224609374,9.964667320251465,2.626439332962036,-0.5554547905921936
1773230426270097200,9.88809716796875,9.981427192687988,2.300827741622925,-0.4836287498474121
1773230426286118000,9.904117919921875,8.755595207214355,1.6280571222305298,-0.31842881441116333
1773230426302108400,9.9201083984375,8.027758598327637,1.721431016921997,-0.42856210470199585
1773230426318101800,9.936101806640625,8.312667846679688,2.1284453868865967,-0.5530605912208557
1773230426334122000,9.9521220703125,9.181763648986816,2.63362193107605,-0.4165911078453064
1773230426350113800,9.96811376953125,9.593565940856934,2.9017724990844727,-0.47644615173339844
1773230426366105900,9.98410595703125,10.393229484558105,2.8826189041137695,-0.08140286058187485
1773230426382096100,10.00009619140625,11.224017143249512,2.801215887069702,-0.0694318488240242
1773230426398118000,10.016117919921875,10.876858711242676,2.5067291259765625,0.2513911724090576
1773230426414108000,10.03210791015625,10.235212326049805,2.209848165512085,0.40222588181495667
1773230426430101200,10.048101318359375,9.926360130310059,2.209848165512085,-0.08619125932455063
1773230426446122800,10.064122802734374,9.670180320739746,1.9081788063049316,-0.23942017555236816
1773230426462113300,10.08011328125,9.014169692993164,1.4844050407409668,-0.21308395266532898
1773230426478104800,10.096104736328124,8.767566680908203,1.2737152576446533,-0.47405192255973816
1773230426494096000,10.112095947265624,9.138668060302734,1.2282254695892334,-0.6536170840263367
1773230426510119000,10.128118896484375,9.361329078674316,1.2856862545013428,-0.730231523513794
1773230426526108700,10.144108642578125,9.26795482635498,1.170764684677124,-0.5817909836769104
1773230426542098200,10.16009814453125,9.481039047241211,1.1204863786697388,-0.5219359993934631
1773230426558121200,10.176121337890624,9.627084732055664,1.2258312702178955,-0.19871874153614044
1773230426574111700,10.19211181640625,9.78989028930664,1.4891934394836426,-0.20111294090747833
1773230426590104300,10.208104248046874,9.672574996948242,1.5969325304031372,-0.11013327538967133
1773230426606124300,10.224124267578125,9.78989028930664,1.8818424940109253,-0.014365210197865963
1773230426622115000,10.240114990234375,9.636661529541016,2.0614075660705566,-0.06224924325942993
1773230426638106600,10.256106689453125,9.32302188873291,2.078166961669922,-0.05506663769483566
1773230426654100000,10.272099853515625,9.174580574035645,2.343923568725586,-0.18914192914962769
1773230426670121200,10.288121337890624,9.68694019317627,2.5665841102600098,-0.05267243832349777
1773230426686113300,10.30411328125,10.141838073730469,2.451662540435791,0.08619125932455063
1773230426702102000,10.32010205078125,9.876082420349121,2.3104045391082764,0.09576806426048279
1773230426714096400,10.332096435546875,9.47146224975586,2.341529369354248,0.016759412363171577
1773230426730116600,10.34811669921875,9.014169692993164,2.389413356781006,-0.011971008032560349
1773230426742112000,10.360112060546875,8.899248123168945,2.4157495498657227,-0.08140286058187485
1773230426754106000,10.372106201171874,8.89445972442627,2.518700122833252,-0.2849099934101105
1773230426766098200,10.38409814453125,8.868123054504395,2.5977089405059814,-0.31364041566848755
1773230426782119700,10.40011962890625,8.877699851989746,2.454056739807129,-0.30885201692581177
1773230426798111000,10.416111083984376,8.87291145324707,2.403778553009033,-0.363918662071228
1773230426814101800,10.432101806640626,9.255983352661133,2.4229321479797363,-0.33279404044151306
1773230426830124500,10.44812451171875,9.871294021606445,2.449268341064453,-0.2992752194404602
1773230426846115800,10.46411572265625,10.295066833496094,2.43011474609375,-0.2106897532939911
1773230426862106000,10.480106201171875,10.359710693359375,2.38462495803833,-0.20111294090747833
1773230426878096000,10.496095947265625,10.014945983886719,1.9919757843017578,-0.043095629662275314
1773230426894117600,10.51211767578125,9.825803756713867,1.8842366933822632,-0.06224924325942993
1773230426906113000,10.524113037109375,9.749189376831055,1.9321208000183105,-0.1843535304069519
1773230426918106000,10.536106201171876,9.742006301879883,1.889025092124939,-0.33518823981285095
1773230426934096100,10.55209619140625,9.423578262329102,1.7262194156646729,-0.26815059781074524
1773230426950119700,10.56811962890625,9.275136947631836,1.699883222579956,-0.2322375625371933
1773230426966110500,10.5841103515625,9.339780807495117,1.7381904125213623,-0.1867477297782898
1773230426982101200,10.600101318359375,9.035717010498047,1.41257905960083,-0.08619125932455063
1773230426998121700,10.616121826171875,8.597578048706055,1.0438719987869263,0.043095629662275314
1773230427014113800,10.63211376953125,8.633491516113281,1.1324573755264282,-0.1149216815829277
1773230427030106400,10.6481064453125,9.124302864074707,1.6089035272598267,-0.5195417404174805
1773230427046098400,10.664098388671874,9.148244857788086,1.6160861253738403,-0.395043283700943
1773230427062118700,10.68011865234375,9.05247688293457,1.4915876388549805,-0.3256114423274994
1773230427078108400,10.6961083984375,9.464279174804688,1.6615760326385498,-0.15322890877723694
1773230427094099200,10.71209912109375,10.031704902648926,1.9369091987609863,-0.22266076505184174
1773230427110122000,10.7281220703125,9.979032516479492,2.0398597717285156,-0.12449848651885986
1773230427126113300,10.74411328125,9.550470352172852,2.094926595687866,-0.2825157940387726
1773230427142104300,10.760104248046876,9.425971984863281,2.248155355453491,-0.10534487664699554
1773230427158094300,10.77609423828125,9.409213066101074,2.4612393379211426,-0.24181437492370605
1773230427174116000,10.7921162109375,9.495404243469238,2.6431987285614014,-0.15322890877723694
1773230427190109000,10.80810888671875,9.830592155456543,2.5450363159179688,-0.17956513166427612
1773230427206100200,10.824100341796875,10.110713958740234,2.5977089405059814,0.002394201699644327
1773230427222121500,10.84012158203125,9.945513725280762,2.561795711517334,-0.2777273952960968
1773230427238112500,10.856112548828126,9.466673851013184,2.47560453414917,-0.2849099934101105
1773230427254104600,10.8721044921875,9.500192642211914,2.559401512145996,-0.3447650372982025
1773230427270095000,10.88809521484375,10.031704902648926,2.7126305103302,-0.35673606395721436
1773230427286118000,10.904117919921875,10.1753568649292,2.38462495803833,-0.3064578175544739
1773230427302107400,10.920107421875,9.93354320526123,2.145204782485962,-0.038307227194309235
1773230427318098200,10.93609814453125,10.1753568649292,2.279279947280884,-0.1149216815829277
1773230427334121500,10.95212158203125,10.527304649353027,2.2697031497955322,-0.2082955539226532
1773230427350113500,10.968113525390624,10.244789123535156,2.1140801906585693,-0.3878606855869293
1773230427366101500,10.9841015625,9.794678688049316,1.98958158493042,-0.08619125932455063
1773230427382094000,11.000093994140625,9.852140426635742,2.0422539710998535,-0.13168109953403473
1773230427394118700,11.01211865234375,9.828198432922363,1.9752163887023926,0.002394201699644327
1773230427406113300,11.02411328125,9.852140426635742,1.8602946996688843,-0.12210428714752197
1773230427422102800,11.040102783203125,9.727641105651855,1.7741034030914307,-0.21547815203666687
1773230427434097700,11.05209765625,9.576807022094727,1.6328455209732056,-0.2346317619085312
1773230427446120200,11.0641201171875,9.509769439697266,1.5538369417190552,-0.19632454216480255
1773230427462111500,11.080111572265626,9.313444137573242,1.5203180313110352,-0.24660277366638184
1773230427478101000,11.09610107421875,8.983044624328613,1.522712230682373,-0.2944868206977844
1773230427494104000,11.11210400390625,8.628703117370605,1.5705963373184204,-0.4118026793003082
1773230427510127400,11.12812744140625,8.80587387084961,1.6112977266311646,-0.3878606855869293
1773230427526119400,11.144119384765625,9.251194953918457,1.656787633895874,-0.28969839215278625
1773230427542111200,11.160111328125,9.519346237182617,1.6280571222305298,-0.14844051003456116
1773230427558130700,11.176130615234374,9.363722801208496,1.7334020137786865,-0.13407529890537262
1773230427570125800,11.188125732421875,9.131484985351562,1.9297266006469727,-0.1149216815829277
1773230427582119000,11.200118896484375,9.069235801696777,2.123656988143921,-0.033518824726343155
1773230427598108700,11.216108642578124,9.038111686706543,2.164358377456665,0.07182604819536209
1773230427614130700,11.232130615234375,9.227252960205078,2.2026655673980713,0.2944868206977844
1773230427630122000,11.2481220703125,9.473855972290039,2.3295583724975586,0.14844051003456116
1773230427646113500,11.264113525390625,9.8784761428833,2.5474305152893066,0.0933738648891449
1773230427662133200,11.28013330078125,10.18493366241455,2.676717519760132,-0.028730420395731926
1773230427678125000,11.296125,10.232817649841309,2.7006595134735107,0.1149216815829277
1773230427694118000,11.312117919921874,10.120290756225586,2.5953147411346436,0.16519992053508759
1773230427710110000,11.32810986328125,9.806650161743164,2.52109432220459,0.2944868206977844
1773230427726130000,11.3441298828125,9.59596061706543,2.470816135406494,0.06464344263076782
1773230427742121200,11.360121337890625,9.315838813781738,2.367865562438965,-0.05267243832349777
1773230427758112800,11.37611279296875,9.263166427612305,2.31758713722229,-0.2322375625371933
1773230427774133200,11.39213330078125,9.315838813781738,2.2577321529388428,-0.24420857429504395
1773230427790126800,11.408126953125,9.311050415039062,2.027888774871826,-0.19632454216480255
1773230427806115800,11.42411572265625,9.68933391571045,2.006340980529785,-0.026336219161748886
1773230427818112300,11.4361123046875,10.261548042297363,2.190694570541382,-0.08140286058187485
1773230427830134000,11.448134033203125,10.342951774597168,2.049436569213867,-0.15562310814857483
1773230427846124300,11.464124267578125,9.758766174316406,1.8148049116134644,0.011971008032560349
1773230427862115000,11.480114990234375,9.217676162719727,1.8531121015548706,-0.038307227194309235
1773230427878106600,11.496106689453125,9.227252960205078,1.9704279899597168,-0.10295066982507706
1773230427894128000,11.512128173828126,9.105149269104004,1.6903064250946045,-0.047884032130241394
1773230427910120400,11.528120361328124,9.30386734008789,1.821987509727478,-0.13168109953403473
1773230427926112500,11.544112548828124,9.818621635437012,1.9057846069335938,-0.13407529890537262
1773230427942133000,11.560133056640625,10.014945983886719,1.8626888990402222,0.10773907601833344
1773230427958124800,11.576124755859375,9.607931137084961,1.8267759084701538,-0.10773907601833344
1773230427974115000,11.592114990234375,9.418789863586426,1.8555063009262085,0.1388636976480484
1773230427990106000,11.608106201171875,9.81143856048584,2.209848165512085,-0.014365210197865963
1773230428006129200,11.624129150390624,9.75397777557373,2.360682964324951,-0.1149216815829277
1773230428022119400,11.640119384765624,9.255983352661133,2.188300371170044,-0.18914192914962769
1773230428038110200,11.656110107421876,9.002198219299316,2.1284453868865967,-0.047884032130241394
1773230428054133000,11.672133056640625,9.385271072387695,2.123656988143921,-0.22266076505184174
1773230428070125300,11.688125244140625,9.543288230895996,2.2194249629974365,-0.1843535304069519
1773230428086115000,11.704114990234375,9.375694274902344,2.2146365642547607,-0.29209262132644653
1773230428102107000,11.72010693359375,9.155426979064941,2.161964178085327,-0.13407529890537262
1773230428118127900,11.7361279296875,9.006986618041992,2.1068975925445557,-0.2537853717803955
1773230428134118100,11.7521181640625,9.121908187866211,2.410961151123047,-0.2825157940387726
1773230428150111500,11.768111572265624,9.509769439697266,2.5234885215759277,-0.31842881441116333
1773230428166132200,11.78413232421875,9.643844604492188,2.456450939178467,-0.13168109953403473
1773230428182123500,11.80012353515625,9.442731857299805,2.1092917919158936,0.15801730751991272
1773230428194116900,11.812116943359374,9.32541561126709,1.9560627937316895,0.21308395266532898
1773230428206111000,11.824111083984375,9.260771751403809,2.049436569213867,-0.0933738648891449
1773230428222132500,11.840132568359374,9.246406555175781,2.497152328491211,-0.3471592366695404
1773230428238123500,11.85612353515625,9.102754592895508,2.6168625354766846,-0.5195417404174805
1773230428254114300,11.8721142578125,9.246406555175781,2.1595699787139893,-0.14604631066322327
1773230428270105600,11.888105712890624,9.703699111938477,1.802833914756775,0.1364694982767105
1773230428286126000,11.9041259765625,10.156203269958496,2.070984363555908,-0.15322890877723694
1773230428302117400,11.920117431640625,10.14902114868164,2.2385785579681396,-0.2801215946674347
1773230428318108400,11.9361083984375,9.68933391571045,2.118868589401245,-0.2082955539226532
1773230428330135800,11.9481357421875,9.648633003234863,2.078166961669922,-0.10773907601833344
1773230428342126300,11.960126220703126,9.775525093078613,2.006340980529785,-0.0933738648891449
1773230428354120200,11.9721201171875,9.77791976928711,1.9536685943603516,-0.0454898327589035
1773230428366113500,11.984113525390624,9.873687744140625,2.0398597717285156,-0.21787235140800476
1773230428382104000,12.00010400390625,10.034099578857422,2.1547815799713135,-0.272938996553421
1773230428398125600,12.01612548828125,10.314221382141113,2.0685901641845703,-0.2106897532939911
1773230428414119400,12.032119384765625,10.237606048583984,1.8794482946395874,-0.3064578175544739
1773230428430109400,12.048109375,9.744400978088379,1.6711528301239014,-0.3016694188117981
1773230428446130400,12.06413037109375,9.330204010009766,1.7741034030914307,-0.33039984107017517
1773230428462121200,12.080121337890626,9.287108421325684,1.9536685943603516,-0.31842881441116333
1773230428478114300,12.0961142578125,9.782708168029785,2.013523578643799,-0.17477671802043915
1773230428490108200,12.108108154296875,9.890447616577148,2.011129379272461,-0.2561795711517334
1773230428502129700,12.120129638671875,9.655815124511719,1.98958158493042,-0.11252748221158981
1773230428518120400,12.136120361328125,9.263166427612305,1.9919757843017578,0.004788403399288654
1773230428534111500,12.152111572265625,8.942343711853027,1.9584569931030273,-0.031124621629714966
1773230428550136300,12.16813623046875,8.853757858276367,1.800439715385437,0.15801730751991272
1773230428566126000,12.1841259765625,9.39245319366455,2.1571757793426514,0.05506663769483566
1773230428582117400,12.200117431640624,9.859322547912598,2.4636335372924805,-0.10055647045373917
1773230428598107100,12.216107177734376,9.5624418258667,2.296039342880249,0.2513911724090576
1773230428614129700,12.232129638671875,9.172186851501465,2.011129379272461,0.28730419278144836
1773230428630122200,12.248122314453125,8.825027465820312,1.8387469053268433,0.2968810200691223
1773230428646112500,12.264112548828125,8.607154846191406,1.9081788063049316,0.1149216815829277
1773230428662132700,12.2801328125,8.554482460021973,2.389413356781006,-0.33758243918418884
1773230428678125300,12.296125244140624,8.374917984008789,2.343923568725586,-0.19632454216480255
1773230428694116400,12.312116455078124,8.346187591552734,2.2146365642547607,-0.1388636976480484
1773230428710108700,12.328108642578124,9.045293807983398,2.367865562438965,-0.33518823981285095
1773230428726130200,12.344130126953125,10.323798179626465,2.5785553455352783,-0.17956513166427612
1773230428742119200,12.360119140625,11.140220642089844,2.762908697128296,-0.27054479718208313
1773230428758110200,12.376110107421875,11.12106704711914,2.741360902786255,-0.10055647045373917
1773230428774134300,12.39213427734375,10.366893768310547,2.408566951751709,0.07422025501728058
1773230428786126600,12.404126708984375,10.163386344909668,2.5234885215759277,0.05985504388809204
1773230428798119000,12.416118896484376,10.031704902648926,2.4875755310058594,-0.14365209639072418
1773230428814110000,12.43210986328125,9.988609313964844,2.3271639347076416,-0.05027823522686958
1773230428830133500,12.448133544921875,10.017339706420898,2.2146365642547607,-0.181959331035614
1773230428846123800,12.464123779296875,10.141838073730469,2.0925323963165283,-0.2801215946674347
1773230428862114300,12.4801142578125,10.06043529510498,2.10210919380188,-0.2825157940387726
1773230428878106600,12.496106689453125,9.895236015319824,2.233790159225464,-0.2849099934101105
1773230428894128400,12.51212841796875,9.818621635437012,1.900996208190918,-0.040701430290937424
1773230428910121000,12.528120849609374,9.725247383117676,1.6879122257232666,0.15083470940589905
1773230428926111500,12.544111572265624,9.586383819580078,1.7693150043487549,-0.12210428714752197
1773230428942132200,12.56013232421875,9.509769439697266,2.0422539710998535,-0.3447650372982025
1773230428958123000,12.576123046875,9.47146224975586,2.188300371170044,-0.38546648621559143
1773230428974115600,12.592115478515625,9.512163162231445,2.073378562927246,-0.3256114423274994
1773230428990137300,12.608137451171874,9.464279174804688,1.8171991109848022,-0.08858546614646912
1773230429006126600,12.624126708984376,9.11233139038086,1.6543933153152466,-0.011971008032560349
1773230429022119000,12.640118896484376,8.810662269592285,1.7381904125213623,0.016759412363171577
1773230429038108400,12.6561083984375,8.619126319885254,1.9536685943603516,-0.2322375625371933
1773230429054131200,12.672131103515625,8.458714485168457,2.1499931812286377,-0.22026655077934265
1773230429070122500,12.68812255859375,8.322244644165039,2.0470423698425293,-0.038307227194309235
1773230429086113800,12.70411376953125,8.480262756347656,2.1116859912872314,0.14604631066322327
1773230429102104300,12.720104248046875,8.71728801727295,1.965639591217041,0.06224924325942993
1773230429118126600,12.736126708984376,9.093177795410156,1.9704279899597168,-0.021547814831137657
1773230429134118100,12.7521181640625,9.272743225097656,2.1045033931732178,-0.31124621629714966
1773230429150110000,12.76810986328125,9.21288776397705,2.0422539710998535,-0.13407529890537262
1773230429166131500,12.78413134765625,9.186552047729492,2.0159177780151367,-0.11252748221158981
1773230429182120200,12.8001201171875,9.411606788635254,2.1930887699127197,-0.09816227108240128
1773230429198112800,12.81611279296875,9.825803756713867,2.252943754196167,-0.22744916379451752
1773230429214103000,12.83210302734375,9.979032516479492,2.2601263523101807,-0.26575639843940735
1773230429230126300,12.848126220703126,9.950302124023438,2.2577321529388428,-0.23702596127986908
1773230429246116900,12.864116943359376,9.624691009521484,2.03507137298584,-0.15322890877723694
1773230429262107400,12.880107421875,9.308655738830566,2.205059766769409,-0.18914192914962769
1773230429278129400,12.89612939453125,8.89685344696045,2.1116859912872314,-0.05746084079146385
1773230429294120000,12.912119873046874,8.856152534484863,1.9177556037902832,0.11252748221158981
1773230429310113300,12.92811328125,8.719682693481445,1.647210717201233,-0.05027823522686958
1773230429326104800,12.944104736328125,9.006986618041992,1.6328455209732056,-0.1867477297782898
1773230429342125600,12.96012548828125,9.655815124511719,1.9632453918457031,-0.47884035110473633
1773230429358115000,12.976114990234375,10.431536674499512,2.229001760482788,-0.31124621629714966
1773230429374109200,12.992109130859374,10.915165901184082,2.3726539611816406,-0.10295066982507706
1773230429390129700,13.008129638671875,10.879252433776855,2.43011474609375,0.016759412363171577
1773230429406121200,13.024121337890625,10.053253173828125,2.1787235736846924,0.21787235140800476
1773230429422111000,13.040111083984375,9.241618156433105,1.5538369417190552,0.4141969084739685
1773230429438102500,13.0561025390625,9.272743225097656,1.9105730056762695,0.26815059781074524
1773230429454124500,13.07212451171875,9.342175483703613,2.4636335372924805,-0.3256114423274994
1773230429466118400,13.084118408203125,8.530540466308594,2.276885747909546,-0.33279404044151306
1773230429478111200,13.096111328125,8.099584579467773,2.03507137298584,-0.2801215946674347
1773230429494134000,13.112134033203125,9.366117477416992,2.3487119674682617,-0.3902548849582672
1773230429510125000,13.128125,11.317391395568848,2.5234885215759277,-0.1412578970193863
1773230429526114800,13.14411474609375,12.36365795135498,2.5546131134033203,-0.3016694188117981
1773230429542105600,13.160105712890624,11.930307388305664,2.7269957065582275,-0.28969839215278625
1773230429558128400,13.17612841796875,11.18092155456543,2.691082715988159,0.06703764945268631
1773230429574119200,13.192119140625,10.216058731079102,2.849100112915039,0.15083470940589905
1773230429590111000,13.208111083984376,8.892065048217773,2.3104045391082764,-0.023942016065120697
1773230429606101200,13.224101318359375,7.819462776184082,1.656787633895874,0.1149216815829277
1773230429622123000,13.240123046875,7.800309181213379,1.3455413579940796,0.18914192914962769
1773230429638114800,13.25611474609375,7.960720539093018,2.2888567447662354,-0.9193734526634216
1773230429654106400,13.2721064453125,8.760383605957031,2.583343744277954,-1.400607943534851
1773230429670128000,13.288128173828126,9.346963882446289,2.3750481605529785,-0.768538773059845
1773230429682122000,13.3001220703125,9.737217903137207,1.946485996246338,-0.12449848651885986
1773230429694115000,13.312114990234376,10.268731117248535,1.7860745191574097,0.17238251864910126
1773230429710107000,13.32810693359375,10.589553833007812,1.8339585065841675,0.2298433631658554
1773230429726126300,13.344126220703124,10.034099578857422,1.9823989868164062,0.021547814831137657
1773230429738123000,13.356123046875,9.184157371520996,2.0183119773864746,-0.08619125932455063
1773230429750116000,13.3681162109375,8.403648376464844,1.9704279899597168,-0.17956513166427612
1773230429766104300,13.384104248046874,8.097189903259277,1.8411411046981812,0.047884032130241394
1773230429782127600,13.400127685546876,8.389283180236816,1.8555063009262085,-0.05506663769483566
1773230429798117000,13.4161171875,8.78432559967041,1.800439715385437,-0.13168109953403473
1773230429814109200,13.432109130859375,9.188945770263672,1.702277421951294,-0.45489832758903503
1773230429830133200,13.44813330078125,9.476250648498535,1.8531121015548706,-0.7230489253997803
1773230429846123000,13.464123046875,9.674968719482422,1.8794482946395874,-0.6631938815116882
1773230429858118000,13.476117919921874,9.821015357971191,1.922544002532959,-0.3447650372982025
1773230429874109000,13.49210888671875,9.95748519897461,1.98958158493042,-0.05027823522686958
1773230429886130400,13.50413037109375,10.079588890075684,2.1045033931732178,0.22266076505184174
1773230429902121200,13.520121337890625,10.230423927307129,2.2888567447662354,-0.021547814831137657
1773230429918113800,13.53611376953125,10.055646896362305,2.3558945655822754,0.021547814831137657
1773230429934104300,13.552104248046875,9.677363395690918,2.315192937850952,-0.002394201699644327
1773230429950127400,13.56812744140625,9.528923034667969,2.4372973442077637,-0.05267243832349777
1773230429966116600,13.58411669921875,9.464279174804688,2.33913516998291,0
1773230429982108200,13.600108154296874,9.718064308166504,2.3942017555236816,0.2322375625371933
1773230429998132000,13.616132080078126,10.103530883789062,2.7126305103302,0.1149216815829277
1773230430014122500,13.63212255859375,10.460267066955566,2.7748796939849854,0.009576806798577309
1773230430030114800,13.64811474609375,10.500968933105469,2.477998733520508,-0.019153613597154617
1773230430046105300,13.664105224609376,10.345345497131348,2.4444799423217773,0.20111294090747833
1773230430062125800,13.680125732421875,10.33098030090332,2.6862943172454834,0.004788403399288654
1773230430078115800,13.69611572265625,9.86650562286377,2.851494312286377,-0.05506663769483566
1773230430094107600,13.712107666015624,9.311050415039062,2.3127987384796143,0.10534487664699554
1773230430110132000,13.728132080078124,9.610325813293457,2.1715409755706787,0.035913024097681046
1773230430126120200,13.7441201171875,10.268731117248535,2.451662540435791,-0.24660277366638184
1773230430142112500,13.760112548828126,10.357316970825195,2.4133553504943848,-0.3495534360408783
1773230430158103600,13.776103515625,9.576807022094727,2.2912509441375732,-0.14365209639072418
1773230430174125600,13.79212548828125,9.457097053527832,2.140416383743286,0.05985504388809204
1773230430190116400,13.808116455078125,9.524134635925293,1.922544002532959,0.15801730751991272
1773230430206107000,13.82410693359375,9.155426979064941,1.7381904125213623,0.10534487664699554
1773230430222129200,13.840129150390625,8.918401718139648,1.9847931861877441,-0.22026655077934265
1773230430238119700,13.85611962890625,8.815450668334961,2.1787235736846924,-0.16519992053508759
1773230430254111500,13.872111572265625,8.7484130859375,1.9369091987609863,-0.047884032130241394
1773230430270103800,13.888103759765626,8.643068313598633,1.7932571172714233,0.14365209639072418
1773230430286124000,13.9041240234375,8.65982723236084,1.7405846118927002,0.2777273952960968
1773230430302115300,13.920115234375,9.172186851501465,1.821987509727478,0.031124621629714966
1773230430318105600,13.936105712890624,9.552865028381348,2.1571757793426514,-0.0454898327589035
1773230430334127900,13.9521279296875,9.861717224121094,2.1978771686553955,-0.21308395266532898
1773230430350121200,13.968121337890626,10.11789608001709,2.360682964324951,0.16759411990642548
1773230430366109700,13.984109619140625,10.232817649841309,2.3080103397369385,0.31603461503982544
1773230430382104000,14.00010400390625,10.316615104675293,2.3511061668395996,0.3687070608139038
1773230430398122800,14.016122802734374,9.710882186889648,2.2840683460235596,0.1843535304069519
1773230430410117000,14.0281171875,9.306262016296387,2.0901381969451904,0.1364694982767105
1773230430422109000,14.04010888671875,9.20091724395752,2.1092917919158936,-0.08619125932455063
1773230430438133000,14.056133056640626,9.3828763961792,2.5306711196899414,-0.12689268589019775
1773230430454124800,14.072124755859376,9.5408935546875,2.5067291259765625,-0.24181437492370605
1773230430470115800,14.08811572265625,9.48343276977539,2.319981336593628,-0.17477671802043915
1773230430486106600,14.104106689453126,9.646238327026367,2.279279947280884,-0.22266076505184174
1773230430502126600,14.120126708984374,10.000580787658691,2.0231003761291504,-0.05746084079146385
1773230430518117400,14.136117431640624,9.895236015319824,1.86508309841156,-0.19393034279346466
1773230430530113800,14.14811376953125,9.660603523254395,1.9129672050476074,-0.2298433631658554
1773230430542107000,14.16010693359375,9.425971984863281,1.9704279899597168,-0.2513911724090576
1773230430558125800,14.176125732421875,9.344569206237793,2.3487119674682617,-0.2585737705230713
1773230430574118400,14.192118408203125,9.672574996948242,2.3942017555236816,-0.3471592366695404
1773230430590109700,14.208109619140625,10.26394271850586,2.190694570541382,0.05985504388809204
1773230430606130400,14.22413037109375,10.467450141906738,2.1116859912872314,-0.09576806426048279
1773230430622121200,14.240121337890624,10.077195167541504,2.1475989818573,-0.21308395266532898
1773230430638112800,14.25611279296875,9.220070838928223,2.1930887699127197,-0.2298433631658554
1773230430654104800,14.272104736328124,9.004592895507812,2.274491548538208,-0.040701430290937424
1773230430670128400,14.28812841796875,9.160215377807617,2.3726539611816406,0.043095629662275314
1773230430686119200,14.304119140625,9.150638580322266,2.10210919380188,-0.05027823522686958
1773230430702110000,14.32010986328125,9.14585018157959,1.9632453918457031,-0.1412578970193863
1773230430718131500,14.33613134765625,9.315838813781738,2.2673089504241943,-0.2992752194404602
1773230430734121200,14.352121337890624,9.519346237182617,2.360682964324951,-0.1149216815829277
1773230430750114800,14.36811474609375,9.181763648986816,2.2242133617401123,-0.05027823522686958
1773230430766106000,14.384106201171875,9.004592895507812,2.1116859912872314,0.047884032130241394
1773230430782126000,14.4001259765625,9.397241592407227,2.2577321529388428,-0.17477671802043915
1773230430798117400,14.416117431640625,10.077195167541504,2.762908697128296,-0.28969839215278625
1773230430814108700,14.432108642578125,10.47942066192627,2.535459518432617,-0.3232172429561615
1773230430830130000,14.4481298828125,10.381258964538574,2.3367409706115723,-0.11013327538967133
1773230430842124800,14.460124755859376,10.18493366241455,2.3702597618103027,-0.07182604819536209
1773230430854115800,14.47211572265625,10.072406768798828,2.387019157409668,0.009576806798577309
1773230430870107100,14.488107177734374,9.758766174316406,2.2577321529388428,-0.2849099934101105
1773230430886129400,14.50412939453125,9.27034854888916,2.054224967956543,-0.1412578970193863
1773230430902120000,14.520119873046875,9.373299598693848,1.8602946996688843,-0.12210428714752197
1773230430918111500,14.536111572265625,9.849745750427246,2.0470423698425293,-0.2561795711517334
1773230430934102300,14.552102294921875,9.524134635925293,2.0614075660705566,-0.5482721924781799
1773230430950126600,14.568126708984375,9.090784072875977,1.9393033981323242,-0.031124621629714966
1773230430966115300,14.584115234375,9.919178009033203,2.183511972427368,-0.05985504388809204
1773230430982106400,14.6001064453125,10.412383079528809,2.0829553604125977,-0.043095629662275314
1773230430994133200,14.61213330078125,10.395624160766602,2.011129379272461,0.19871874153614044
1773230431010123000,14.628123046875,9.528923034667969,2.097320795059204,0.12689268589019775
1773230431022116400,14.640116455078125,9.023746490478516,2.1763293743133545,0.27054479718208313
1773230431038106600,14.656106689453125,8.937555313110352,2.145204782485962,0.09576806426048279
1773230431054127900,14.6721279296875,8.892065048217773,2.2242133617401123,0.2992752194404602
1773230431070121200,14.688121337890625,8.937555313110352,2.1164743900299072,0.14365209639072418
1773230431086112000,14.704112060546874,9.418789863586426,2.0374655723571777,0.3974374830722809
1773230431102104000,14.72010400390625,9.026140213012695,1.802833914756775,0.1628057211637497
1773230431118124500,14.73612451171875,8.432378768920898,2.343923568725586,-0.42377370595932007
1773230431134114300,14.7521142578125,8.875306129455566,2.454056739807129,-0.23702596127986908
1773230431150108000,14.76810791015625,9.548076629638672,2.27209734916687,0.13168109953403473
1773230431162131500,14.78013134765625,9.667786598205566,2.27209734916687,0.08858546614646912
1773230431174123800,14.792123779296874,9.804255485534668,2.3056161403656006,0.2298433631658554
1773230431190116400,14.808116455078125,9.804255485534668,2.1811177730560303,0.11252748221158981
1773230431206105600,14.824105712890624,9.603142738342285,2.209848165512085,0.16759411990642548
1773230431222128000,14.840128173828125,8.956708908081055,2.0374655723571777,0.23702596127986908
1773230431238118100,14.8561181640625,8.47786808013916,1.8626888990402222,0.0694318488240242
1773230431254109400,14.872109375,9.14585018157959,2.070984363555908,-0.07900865375995636
1773230431270104000,14.88810400390625,9.746794700622559,2.410961151123047,-0.44532153010368347
1773230431286122500,14.90412255859375,10.093954086303711,2.38462495803833,-0.33518823981285095
1773230431302114000,14.920114013671874,10.706870079040527,2.346317768096924,-0.05267243832349777
1773230431318104300,14.936104248046876,11.288661003112793,2.3319525718688965,0.05506663769483566
1773230431334126800,14.952126953125,10.673351287841797,2.075772762298584,0.3471592366695404
1773230431350120200,14.9681201171875,9.078812599182129,1.7836803197860718,0.0454898327589035
1773230431366111000,14.984111083984375,8.29590892791748,1.7262194156646729,0.12928688526153564
1773230431382099700,15.000099609375,9.272743225097656,2.0661959648132324,-0.17956513166427612
1773230431398121200,15.016121337890626,10.29746150970459,2.499546527862549,-0.17956513166427612
1773230431414112500,15.032112548828126,10.050858497619629,2.5258827209472656,-0.19871874153614044
1773230431430106000,15.048106201171874,9.435548782348633,2.4396915435791016,0.06464344263076782
1773230431446126300,15.064126220703125,9.157821655273438,1.7932571172714233,0.507570743560791
1773230431462118000,15.080117919921875,8.925583839416504,1.4939818382263184,0.4908113479614258
1773230431478107400,15.096107421875,9.181763648986816,2.10210919380188,-0.047884032130241394
1773230431494099200,15.11209912109375,9.097966194152832,2.8227639198303223,-0.4644751250743866
1773230431506125800,15.124125732421875,8.370129585266113,2.5234885215759277,-0.3280056416988373
1773230431518130200,15.136130126953125,8.054094314575195,2.1499931812286377,-0.15083470940589905
1773230431534107400,15.152107421875,8.561665534973145,2.075772762298584,-0.2561795711517334
1773230431550101800,15.168101806640625,9.715670585632324,2.3942017555236816,-0.21787235140800476
1773230431562124800,15.180124755859374,9.466673851013184,2.233790159225464,-0.20350714027881622
1773230431574115600,15.192115478515625,8.738836288452148,1.9536685943603516,-0.4405331015586853
1773230431590109200,15.208109130859375,8.130708694458008,1.5490485429763794,-0.3878606855869293
1773230431602102000,15.22010205078125,7.479485988616943,1.6831238269805908,-0.8475474119186401
1773230431618123500,15.23612353515625,8.401253700256348,2.049436569213867,-1.0079588890075684
1773230431634114800,15.25211474609375,9.792284965515137,2.410961151123047,-0.9145850539207458
1773230431646107100,15.264107177734376,10.038887977600098,2.7126305103302,-0.7565677165985107
1773230431658101500,15.2761015625,11.858481407165527,3.1483752727508545,-0.689530074596405
1773230431670126800,15.288126953125,12.440272331237793,2.628833532333374,0.06464344263076782
1773230431686116400,15.304116455078125,12.172121047973633,1.8770540952682495,0.5650315880775452
1773230431702107100,15.320107177734375,11.585541725158691,1.8363527059555054,0.6655880808830261
1773230431718129700,15.336129638671874,10.668562889099121,2.674323320388794,0.5817909836769104
1773230431734120700,15.35212060546875,9.284713745117188,2.669534921646118,0.08619125932455063
1773230431750113300,15.36811328125,8.305485725402832,2.2218191623687744,0.3878606855869293
1773230431766102300,15.384102294921876,9.208099365234375,2.1954829692840576,0.6344634294509888
1773230431782124500,15.40012451171875,10.359710693359375,1.9991583824157715,0.49799394607543945
1773230431798115000,15.416114990234375,10.366893768310547,1.5203180313110352,0.08379705995321274
1773230431810111200,15.428111328125,10.584765434265137,1.7070658206939697,-0.47405192255973816
1773230431822103300,15.440103271484375,10.376470565795898,2.4157495498657227,-0.3998316824436188
1773230431838124300,15.456124267578126,10.211270332336426,2.473210334777832,0.011971008032560349
1773230431854114800,15.47211474609375,9.478644371032715,1.9943699836730957,0.2777273952960968
1773230431870107100,15.488107177734374,8.944737434387207,1.7980455160140991,0.13168109953403473
1773230431882099500,15.500099365234375,8.607154846191406,1.6208745241165161,0.3878606855869293
1773230431894123500,15.51212353515625,8.592789649963379,1.8387469053268433,0.17238251864910126
1773230431910116000,15.5281162109375,8.884882926940918,2.363077163696289,-0.3423708379268646
1773230431926106400,15.5441064453125,8.597578048706055,2.0039467811584473,-0.3663128614425659
1773230431942127600,15.560127685546876,8.619126319885254,1.7693150043487549,-0.3758896589279175
1773230431958119000,15.576118896484376,8.968679428100586,2.10210919380188,0.031124621629714966
1773230431974109700,15.592109619140626,9.674968719482422,2.518700122833252,0.30885201692581177
1773230431990103300,15.608103271484374,10.311826705932617,2.5546131134033203,-0.21308395266532898
1773230432006122500,15.62412255859375,10.20648193359375,2.2888567447662354,0.040701430290937424
1773230432022114000,15.640114013671875,9.612719535827637,2.140416383743286,0.13168109953403473
1773230432038104800,15.656104736328125,9.090784072875977,2.185906171798706,0.44771572947502136
1773230432054127600,15.672127685546876,8.923190116882324,1.7118542194366455,0.3208230137825012
1773230432070119700,15.68811962890625,9.074024200439453,1.6879122257232666,0.33279404044151306
1773230432086110200,15.704110107421876,9.634267807006836,2.451662540435791,-0.6057330369949341
1773230432102102300,15.720102294921874,9.828198432922363,2.626439332962036,-0.706289529800415
1773230432118123500,15.73612353515625,9.799467086791992,2.319981336593628,-0.16759411990642548
1773230432134113800,15.75211376953125,10.42195987701416,2.3032219409942627,0.17477671802043915
1773230432150106600,15.768106689453125,10.831368446350098,2.164358377456665,0.42856210470199585
1773230432166129000,15.78412890625,10.74996566772461,2.097320795059204,0.19632454216480255
1773230432182119000,15.800118896484374,10.15141487121582,2.434903144836426,0.14365209639072418
1773230432198108700,15.816108642578126,9.708487510681152,2.609679937362671,0.13168109953403473
1773230432214100500,15.8321005859375,9.473855972290039,2.5450363159179688,0.24899697303771973
1773230432230124000,15.8481240234375,9.543288230895996,2.456450939178467,0.1388636976480484
1773230432246114800,15.86411474609375,9.153033256530762,1.9177556037902832,0.38307225704193115
1773230432262104800,15.880104736328125,9.045293807983398,1.6519991159439087,0.33997663855552673
1773230432278126300,15.896126220703126,9.315838813781738,1.9536685943603516,-0.13168109953403473
1773230432294118000,15.912117919921876,9.100360870361328,2.1715409755706787,-0.4836287498474121
1773230432310110500,15.9281103515625,8.628703117370605,2.0590133666992188,-0.7398083209991455
1773230432326101000,15.94410107421875,8.56884765625,1.9057846069335938,-0.009576806798577309
1773230432342123300,15.960123291015625,9.682151794433594,2.2457611560821533,0.047884032130241394
1773230432358112800,15.97611279296875,10.745177268981934,2.209848165512085,-0.026336219161748886
1773230432374103000,15.99210302734375,10.321403503417969,1.9153614044189453,-0.4141969084739685
1773230432390125800,16.008125732421874,9.275136947631836,1.8052281141281128,-0.08619125932455063
1773230432406115000,16.024114990234374,9.114726066589355,2.248155355453491,0.13407529890537262
1773230432422108700,16.040108642578126,9.232041358947754,2.300827741622925,-0.002394201699644327
1773230432438100700,16.056100830078126,8.96389102935791,1.7597382068634033,0.08858546614646912
1773230432454119700,16.07211962890625,9.102754592895508,1.9177556037902832,-0.031124621629714966
1773230432470110500,16.0881103515625,9.548076629638672,2.540247917175293,-0.24420857429504395
1773230432486102300,16.104102294921876,9.528923034667969,2.209848165512085,-0.3471592366695404
1773230432502124500,16.12012451171875,9.375694274902344,1.4077905416488647,0.2753331959247589
1773230432518117000,16.1361171875,9.825803756713867,1.8507179021835327,0.33758243918418884
1773230432534158600,16.15215869140625,9.99100399017334,2.6408045291900635,0.07900865375995636
1773230432550148600,16.168148681640623,9.14585018157959,2.1595699787139893,0.14604631066322327
1773230432566173000,16.1841728515625,8.844181060791016,1.7142484188079834,0.19871874153614044
1773230432582162700,16.20016259765625,9.804255485534668,2.2673089504241943,0.27054479718208313
1773230432598152200,16.216152099609374,10.467450141906738,2.5689783096313477,0.1149216815829277
1773230432614175200,16.23217529296875,10.366893768310547,2.341529369354248,0.4118026793003082
1773230432630168000,16.24816796875,9.765948295593262,2.0446481704711914,0.40940847992897034
1773230432646156500,16.264156494140625,9.478644371032715,2.1954829692840576,0.47644615173339844
1773230432662180000,16.28018017578125,9.528923034667969,2.3080103397369385,-0.11252748221158981
1773230432678169300,16.29616943359375,9.59835433959961,2.408566951751709,-0.15083470940589905
1773230432694162200,16.312162109375,9.519346237182617,2.1523873805999756,0.2753331959247589
1773230432710151700,16.328151611328124,9.981427192687988,2.1164743900299072,-0.014365210197865963
1773230432726175700,16.34417578125,10.127472877502441,2.126051187515259,-0.15801730751991272
1773230432742165000,16.3601650390625,9.528923034667969,1.845929503440857,-0.1364694982767105
1773230432758157800,16.37615771484375,9.41639518737793,1.9728221893310547,0.08619125932455063
1773230432774178600,16.392178466796874,10.261548042297363,2.274491548538208,-0.19153612852096558
1773230432790170000,16.408170166015626,10.800244331359863,2.0661959648132324,0.12928688526153564
1773230432806163500,16.42416357421875,10.122684478759766,1.900996208190918,0.07900865375995636
1773230432822152000,16.44015185546875,9.157821655273438,1.920149803161621,0.5530605912208557
1773230432838173700,16.456173583984373,8.779537200927734,1.9512743949890137,0.15562310814857483
1773230432854168000,16.47216796875,8.609549522399902,1.5825673341751099,0.1843535304069519
1773230432870157800,16.48815771484375,8.406042098999023,1.400607943534851,0.019153613597154617
1773230432886177300,16.50417724609375,8.315062522888184,1.7166426181793213,-0.021547814831137657
1773230432902169600,16.520169677734376,8.14028549194336,1.7381904125213623,-0.1604115068912506
1773230432918161000,16.536160888671876,8.250418663024902,1.50355863571167,-0.2992752194404602
1773230432934151200,16.552151123046876,8.808267593383789,1.5753847360610962,-0.304063618183136
1773230432950175500,16.568175537109376,9.442731857299805,1.9991583824157715,-0.0933738648891449
1773230432966163700,16.584163818359375,9.433155059814453,1.778891921043396,0.26575639843940735
1773230432982157000,16.600156982421876,9.320627212524414,1.256955862045288,0.1388636976480484
1773230432998178600,16.616178466796875,9.32541561126709,1.6184803247451782,0.10534487664699554
1773230433014168600,16.63216845703125,9.435548782348633,2.425326347351074,0.021547814831137657
1773230433030162400,16.648162353515627,9.390059471130371,2.535459518432617,0.12689268589019775
1773230433046152000,16.66415185546875,9.440337181091309,2.1380221843719482,0.4141969084739685
1773230433062172700,16.680172607421873,9.830592155456543,1.9536685943603516,0.4213795065879822
1773230433078164200,16.696164306640625,10.070012092590332,2.008735179901123,0.17477671802043915
1773230433094155800,16.71215576171875,10.402806282043457,2.300827741622925,-0.09816227108240128
1773230433110177500,16.728177490234376,10.498574256896973,2.6575639247894287,-0.15083470940589905
1773230433126170400,16.74417041015625,10.319009780883789,2.454056739807129,0.17956513166427612
1773230433142159000,16.7601591796875,9.861717224121094,1.946485996246338,-0.031124621629714966
1773230433158152400,16.77615234375,9.509769439697266,1.4413094520568848,0.2082955539226532
1773230433174172700,16.792172607421875,10.077195167541504,2.0638017654418945,0.1412578970193863
1773230433190166000,16.808166015625,10.527304649353027,2.5522189140319824,-0.4118026793003082
1773230433206156000,16.824156005859376,9.952696800231934,2.013523578643799,-0.3232172429561615
1773230433222177800,16.840177734375,9.20091724395752,1.6879122257232666,-0.07661445438861847
1773230433238167800,16.856167724609374,9.682151794433594,2.140416383743286,0.49799394607543945
1773230433254160400,16.872160400390626,10.805032730102539,2.738966703414917,0.14365209639072418
1773230433270151200,16.888151123046875,10.704475402832031,2.1595699787139893,0.24181437492370605
1773230433286174000,16.904174072265626,9.497797966003418,1.5945383310317993,-0.1412578970193863
1773230433302164700,16.920164794921874,8.286332130432129,1.9776105880737305,0.05985504388809204
1773230433318154200,16.936154296875,7.982268333435059,2.1715409755706787,-0.10295066982507706
1773230433330181600,16.948181640625,7.99184513092041,1.920149803161621,0.011971008032560349
1773230433346172400,16.96417236328125,8.26239013671875,1.7860745191574097,0
1773230433358163000,16.976162841796874,8.473079681396484,1.8938134908676147,-0.2849099934101105
1773230433374155300,16.9921552734375,8.853757858276367,1.8962076902389526,-0.33997663855552673
1773230433390177300,17.00817724609375,9.05247688293457,1.7597382068634033,-0.363918662071228
1773230433406167800,17.024167724609374,9.892841339111328,2.0398597717285156,0.035913024097681046
1773230433422159000,17.0401591796875,10.754754066467285,2.300827741622925,0.20350714027881622
1773230433438179600,17.0561796875,10.977415084838867,2.2673089504241943,0.42377370595932007
1773230433454173000,17.0721728515625,10.505757331848145,2.1356279850006104,0.49559974670410156
1773230433470164200,17.088164306640625,9.890447616577148,1.9823989868164062,0.629675030708313
1773230433486155000,17.104155029296876,9.617507934570312,1.8507179021835327,0.7110779285430908
1773230433502176800,17.1201767578125,9.708487510681152,1.9632453918457031,0.35434186458587646
1773230433518166300,17.136166259765623,9.521739959716797,2.0805611610412598,0.2537853717803955
1773230433534159400,17.152159423828124,9.607931137084961,2.03507137298584,0.3471592366695404
1773230433550182700,17.1681826171875,10.220847129821777,2.1787235736846924,0.4692635238170624
1773230433566169900,17.184169921875,10.922348022460938,2.3965959548950195,0.395043283700943
1773230433582162000,17.200161865234374,11.231200218200684,2.427720546722412,0.35913026332855225
1773230433598153000,17.216153076171874,10.429142951965332,2.1068975925445557,0.8547300100326538
1773230433614175500,17.232175537109374,9.485827445983887,1.9249382019042969,0.7015010714530945
1773230433630169600,17.248169677734374,8.662221908569336,1.6687586307525635,0.4644751250743866
1773230433646159400,17.264159423828126,8.585607528686523,1.8052281141281128,-0.016759412363171577
1773230433662149400,17.2801494140625,9.265560150146484,2.5522189140319824,-0.2944868206977844
1773230433678170400,17.29617041015625,9.974244117736816,2.4803929328918457,-0.05267243832349777
1773230433694162700,17.31216259765625,9.744400978088379,2.0254945755004883,0.24181437492370605
1773230433710155500,17.328155517578125,9.121908187866211,1.9153614044189453,0.4213795065879822
1773230433726176300,17.34417626953125,8.62630844116211,1.5753847360610962,0.26336219906806946
1773230433742166300,17.360166259765624,8.757989883422852,1.9728221893310547,0.2777273952960968
1773230433758158300,17.376158447265624,8.920795440673828,2.609679937362671,-0.2944868206977844
1773230433774178300,17.39217822265625,8.216899871826172,1.9393033981323242,-0.0454898327589035
1773230433790171600,17.408171630859375,8.003816604614258,1.3718775510787964,-0.002394201699644327
1773230433806160600,17.42416064453125,9.674968719482422,1.946485996246338,-0.2298433631658554
1773230433822152200,17.440152099609374,11.829751014709473,2.7964274883270264,-0.5746083855628967
1773230433838174000,17.456174072265625,11.8225679397583,2.6168625354766846,-0.811634361743927
1773230433854165200,17.472165283203125,10.08437728881836,1.6903064250946045,-0.4884171485900879
1773230433870159400,17.488159423828126,9.423578262329102,1.0965443849563599,-0.10055647045373917
1773230433886179800,17.504179931640625,10.010157585144043,1.723825216293335,-0.47405192255973816
1773230433902170600,17.520170654296876,9.962273597717285,2.451662540435791,-1.0534487962722778
1773230433918160600,17.53616064453125,9.057265281677246,2.2816741466522217,-0.6248866319656372
1773230433934152000,17.55215185546875,9.315838813781738,1.5490485429763794,-0.22266076505184174
1773230433950176500,17.568176513671876,9.849745750427246,1.3120225667953491,-0.06464344263076782
1773230433966164700,17.584164794921875,10.232817649841309,1.501164436340332,0.10773907601833344
1773230433982157800,17.60015771484375,9.859322547912598,1.4221558570861816,0.2298433631658554
1773230433998179300,17.616179443359375,9.500192642211914,1.1899182796478271,0.20350714027881622
1773230434014170600,17.632170654296875,9.255983352661133,1.1085153818130493,0.2322375625371933
1773230434030162200,17.648162109375,9.301473617553711,1.3335703611373901,0.10055647045373917
1773230434046154500,17.664154541015623,9.423578262329102,1.6519991159439087,0.1628057211637497
1773230434062174200,17.68017431640625,9.502586364746094,1.6615760326385498,0.2777273952960968
1773230434078165200,17.696165283203126,9.473855972290039,1.2425906658172607,0.30885201692581177
1773230434094156800,17.71215673828125,9.469067573547363,1.139639973640442,0.5674257874488831
1773230434110176800,17.7281767578125,9.536105155944824,1.601720929145813,0.26336219906806946
1773230434126169600,17.744169677734376,9.220070838928223,1.7812861204147339,0.27054479718208313
1773230434142159600,17.76015966796875,8.887276649475098,1.599326729774475,0.3208230137825012
1773230434158152400,17.77615234375,8.796297073364258,1.558625340461731,0.3758896589279175
1773230434174174200,17.79217431640625,9.17936897277832,1.4628572463989258,0.629675030708313
1773230434190166500,17.80816650390625,9.974244117736816,1.5921441316604614,0.6751648783683777
1773230434206156000,17.824156005859376,10.618284225463867,1.802833914756775,0.3758896589279175
1773230434222178300,17.84017822265625,10.647014617919922,1.8100165128707886,0.31364041566848755
1773230434238168300,17.856168212890626,10.156203269958496,1.702277421951294,0.4141969084739685
1773230434250164200,17.868164306640626,9.775525093078613,1.5921441316604614,0.4189853072166443
1773230434266154500,17.884154541015626,9.404424667358398,1.37906014919281,0.6129156351089478
1773230434278177300,17.89617724609375,9.488221168518066,1.2617442607879639,0.5482721924781799
1773230434294169600,17.912169677734376,9.81143856048584,1.1755530834197998,0.5027823448181152
1773230434310161400,17.928161376953124,9.871294021606445,1.4245500564575195,0.1867477297782898
1773230434326153200,17.9441533203125,9.394847869873047,1.699883222579956,-0.2298433631658554
1773230434342171600,17.960171630859374,9.263166427612305,1.6663644313812256,0.07422025501728058
1773230434354167300,17.972167236328126,9.402029991149902,1.5490485429763794,0.48602294921875
1773230434366161200,17.9841611328125,9.344569206237793,1.0630255937576294,0.4596867263317108
1773230434382182700,18.0001826171875,9.318233489990234,0.727837324142456,0.7398083209991455
1773230434398173000,18.0161728515625,9.813833236694336,1.3551181554794312,0.49559974670410156
1773230434414165500,18.03216552734375,9.586383819580078,1.968033790588379,-0.33997663855552673
1773230434430157000,18.048156982421876,8.860940933227539,1.845929503440857,-0.26096799969673157
1773230434446178600,18.064178466796875,9.497797966003418,1.6735470294952393,0.2968810200691223
1773230434462167300,18.080167236328126,10.54406452178955,1.280897855758667,0.6703764796257019
1773230434478159000,18.0961591796875,10.517727851867676,1.213860273361206,0.5985504388809204
1773230434494149000,18.112149169921874,9.57201862335205,1.7932571172714233,-0.1843535304069519
1773230434510174000,18.128174072265626,8.513781547546387,1.968033790588379,-0.4644751250743866
1773230434526163200,18.1441630859375,8.248024940490723,1.5083470344543457,-0.031124621629714966
1773230434542156000,18.160156005859374,8.834604263305664,1.3455413579940796,0.08619125932455063
1773230434554180900,18.172180908203124,9.354146003723145,1.3551181554794312,0.2825157940387726
1773230434566173000,18.1841728515625,9.998186111450195,1.4269442558288574,0.33997663855552673
1773230434582162000,18.200161865234374,10.445901870727539,1.6974890232086182,-0.0071826050989329815
1773230434598154000,18.216154052734375,10.225635528564453,1.845929503440857,-0.14844051003456116
1773230434614176000,18.232176025390626,10.086771965026855,1.6328455209732056,0.07900865375995636
1773230434630168300,18.248168212890626,10.285490036010742,1.482010841369629,0.5434837937355042
1773230434646159000,18.2641591796875,10.24239444732666,1.4389152526855469,0.43095630407333374
1773230434662179800,18.280179931640625,9.921571731567383,1.5394717454910278,0.3926490843296051
1773230434678173200,18.296173095703125,9.885659217834473,1.944091796875,-0.004788403399288654
1773230434694162000,18.312161865234376,9.461885452270508,1.9800047874450684,-0.13407529890537262
1773230434710156500,18.328156494140625,9.095572471618652,1.455674648284912,0.09576806426048279
1773230434726176800,18.3441767578125,9.275136947631836,1.0031704902648926,0.2513911724090576
1773230434742167300,18.360167236328124,9.682151794433594,1.161187767982483,0.23942017555236816
1773230434758160400,18.376160400390624,9.947908401489258,1.745373010635376,-0.13407529890537262
1773230434774179300,18.392179443359375,9.2033109664917,1.659181833267212,-0.1364694982767105
1773230434790173700,18.408173583984375,9.284713745117188,1.2952631711959839,-0.004788403399288654
1773230434806163700,18.424163818359375,9.780313491821289,1.0845733880996704,0.3232172429561615
1773230434822155000,18.440155029296875,10.436325073242188,1.3958195447921753,0.31603461503982544
1773230434838175700,18.45617578125,10.218452453613281,1.9608511924743652,0.031124621629714966
1773230434854166800,18.472166748046874,9.313444137573242,1.766920804977417,0.304063618183136
1773230434870160000,18.488159912109374,8.595184326171875,1.335964560508728,0.14365209639072418
1773230434886179600,18.5041796875,8.760383605957031,1.1971008777618408,0.2537853717803955
1773230434902170000,18.520170166015625,9.706093788146973,1.800439715385437,-0.24420857429504395
1773230434918162000,18.536161865234376,9.53849983215332,1.8100165128707886,-0.2561795711517334
1773230434934153000,18.552153076171876,8.820239067077637,1.381454348564148,-0.2082955539226532
1773230434950176000,18.568176025390624,9.064447402954102,1.2521674633026123,-0.15322890877723694
1773230434966168300,18.584168212890624,10.11550235748291,1.4389152526855469,0.023942016065120697
1773230434982158000,18.600157958984376,10.747570991516113,1.7142484188079834,-0.10055647045373917
1773230434998179600,18.6161796875,10.42195987701416,1.7262194156646729,-0.09816227108240128
1773230435014170000,18.632170166015626,10.122684478759766,1.5275006294250488,0.24660277366638184
1773230435030164000,18.6481640625,10.232817649841309,1.482010841369629,0.48602294921875
1773230435046153700,18.66415380859375,10.20887565612793,1.434126853942871,0.4189853072166443
1773230435062174700,18.6801748046875,9.96945571899414,1.460463047027588,0.40940847992897034
1773230435078166000,18.696166015625,9.971850395202637,1.5514427423477173,0.26336219906806946
1773230435094156500,18.712156494140626,9.75397777557373,1.3862427473068237,0.4405331015586853
1773230435106181600,18.724181640625,9.3828763961792,1.1635819673538208,0.36152446269989014
1773230435118174200,18.73617431640625,9.097966194152832,1.139639973640442,0.24420857429504395
1773230435134165200,18.752165283203126,9.08838939666748,1.1803414821624756,0.05985504388809204
1773230435150159400,18.768159423828124,9.737217903137207,1.2832920551300049,0.2059013396501541
1773230435166179600,18.7841796875,10.11789608001709,1.4221558570861816,0.2561795711517334
1773230435182170400,18.80017041015625,10.251971244812012,1.3072341680526733,0.16519992053508759
1773230435198162200,18.816162109375,9.775525093078613,1.4053963422775269,0.08619125932455063
1773230435214151400,18.8321513671875,9.545681953430176,1.3431471586227417,-0.014365210197865963
1773230435226177500,18.844177490234376,10.76193618774414,1.3694833517074585,0.6727706789970398
1773230435238168600,18.85616845703125,11.537657737731934,1.3862427473068237,0.8954314589500427
1773230435254160600,18.87216064453125,11.434707641601562,1.6208745241165161,1.2449848651885986
1773230435270153000,18.888153076171875,10.6709566116333,1.7094600200653076,1.0654197931289673
1773230435286175000,18.904175048828126,9.334992408752441,1.8531121015548706,0.4620809257030487
1773230435302165200,18.920165283203126,8.255207061767578,1.9991583824157715,0.1388636976480484
1773230435318157000,18.936156982421874,7.718906402587891,2.126051187515259,-0.002394201699644327
1773230435334177000,18.952177001953125,7.63989782333374,2.432508945465088,0.10773907601833344
1773230435350168000,18.96816796875,8.159439086914062,2.497152328491211,-0.24660277366638184
1773230435366161700,18.98416162109375,8.832210540771484,2.4229321479797363,-0.3663128614425659
1773230435382152200,19.000152099609377,9.797073364257812,2.1045033931732178,0.08379705995321274
1773230435398172400,19.01617236328125,10.524910926818848,2.0470423698425293,0.7637503147125244
1773230435414165800,19.032165771484376,10.881647109985352,1.9512743949890137,0.8954314589500427
1773230435430156300,19.04815625,10.740388870239258,1.9081788063049316,0.6943184733390808
1773230435446177800,19.064177734375,10.42195987701416,1.9345149993896484,0.5027823448181152
1773230435462169000,19.080169189453127,10.398017883300781,1.9584569931030273,0.7948749661445618
1773230435478161400,19.096161376953123,10.611102104187012,1.9297266006469727,0.8140285611152649
1773230435494153200,19.1121533203125,10.668562889099121,1.8076223134994507,0.5841852426528931
1773230435510175000,19.128175048828126,10.127472877502441,1.5275006294250488,0.8307880163192749
1773230435522167800,19.140167724609373,9.718064308166504,1.173158884048462,1.158793568611145
1773230435538158600,19.15615869140625,9.394847869873047,1.0989385843276978,1.3072341680526733
1773230435550184000,19.168183837890624,9.66299819946289,1.2066776752471924,1.1516109704971313
1773230435562176500,19.180176513671874,10.007762908935547,1.4963760375976562,0.8690952062606812
1773230435574168800,19.1921689453125,9.8784761428833,1.8052281141281128,0.5410895943641663
1773230435590161200,19.2081611328125,9.131484985351562,2.054224967956543,-0.038307227194309235
1773230435606152200,19.224152099609373,8.975862503051758,2.3702597618103027,-0.24420857429504395
1773230435622172400,19.24017236328125,9.864110946655273,2.894589900970459,0.15801730751991272
1773230435638165800,19.256165771484376,10.340557098388672,3.0406360626220703,0.22026655077934265
1773230435654156000,19.272156005859376,10.022128105163574,3.0334534645080566,-0.038307227194309235
1773230435670179000,19.288178955078124,9.351752281188965,3.117250680923462,0.07661445438861847
1773230435686168600,19.30416845703125,9.430760383605957,3.7924153804779053,0.7182605266571045
1773230435702159000,19.3201591796875,9.75637149810791,3.9217023849487305,0.3687070608139038
1773230435718180600,19.3361806640625,9.593565940856934,4.072536945343018,-0.26815059781074524
1773230435734172200,19.352172119140626,9.684545516967773,3.56017804145813,-0.2346317619085312
1773230435750165000,19.3681650390625,9.430760383605957,3.114856481552124,-0.31842881441116333
1773230435766156300,19.38415625,9.794678688049316,2.937685489654541,-0.10055647045373917
1773230435782175700,19.40017578125,10.577583312988281,3.375824451446533,-0.6177040338516235
1773230435798167800,19.416167724609377,10.931924819946289,3.6320040225982666,-0.6368576288223267
1773230435814158300,19.432158447265625,10.96304988861084,3.687070608139038,-0.6655880808830261
1773230435830183000,19.448182861328124,10.876858711242676,3.6104562282562256,0.3998316824436188
1773230435846173700,19.464173583984376,10.642226219177246,3.2848446369171143,0.608127236366272
1773230435862163500,19.48016357421875,10.18493366241455,2.96162748336792,0.22266076505184174
1773230435878154800,19.49615478515625,9.564835548400879,2.698265314102173,0.21308395266532898
1773230435894177000,19.512177001953123,9.84495735168457,3.490746021270752,0.2944868206977844
1773230435910169300,19.52816943359375,10.249577522277832,3.4404678344726562,0.10295066982507706
1773230435926159000,19.5441591796875,9.852140426635742,2.561795711517334,0.20350714027881622
1773230435942179300,19.560179443359374,9.097966194152832,1.8962076902389526,0.3064578175544739
1773230435958171100,19.576171142578126,9.320627212524414,1.845929503440857,0.4620809257030487
1773230435974164000,19.5921640625,10.651803016662598,2.609679937362671,0.15801730751991272
1773230435990156300,19.60815625,10.072406768798828,2.7916390895843506,-0.1388636976480484
1773230436006175700,19.62417578125,8.226476669311523,2.0422539710998535,-0.6368576288223267
1773230436022167600,19.64016748046875,7.438784599304199,2.3535003662109375,0.05746084079146385
1773230436038157800,19.65615771484375,7.448361396789551,2.542642116546631,-0.05506663769483566
1773230436054180400,19.672180419921876,8.530540466308594,3.069366693496704,-0.2561795711517334
1773230436070170000,19.688170166015624,8.489839553833008,3.066972494125366,-0.35673606395721436
1773230436086163200,19.7041630859375,7.637503623962402,2.5330653190612793,-0.5363011956214905
1773230436102153200,19.7201533203125,7.364564418792725,2.6216509342193604,-0.21547815203666687
1773230436114177500,19.732177490234374,7.838616371154785,2.9927520751953125,-0.038307227194309235
1773230436126172200,19.744172119140625,8.329427719116211,3.450044631958008,-0.011971008032560349
1773230436142161000,19.760160888671876,9.29189682006836,3.7876269817352295,-0.6009446382522583
1773230436158153000,19.776153076171877,9.241618156433105,3.6320040225982666,-0.7637503147125244
1773230436174174700,19.7921748046875,9.433155059814453,3.6822822093963623,-0.7972691655158997
1773230436190167800,19.808167724609376,10.237606048583984,3.9456443786621094,-0.7972691655158997
1773230436206158800,19.824158935546876,10.910377502441406,4.055777549743652,-0.9624691009521484
1773230436222180000,19.84018017578125,11.027692794799805,3.9624037742614746,-0.8858546018600464
1773230436238170000,19.856170166015627,10.553641319274902,3.9169139862060547,-0.5722141861915588
1773230436254161400,19.872161376953127,10.436325073242188,3.5625722408294678,-0.8188169598579407
1773230436270154500,19.888154541015624,10.955866813659668,3.44765043258667,-1.0869675874710083
1773230436286175200,19.90417529296875,10.505757331848145,3.0358476638793945,-0.002394201699644327
1773230436302165000,19.9201650390625,9.514557838439941,2.7748796939849854,-0.5961562395095825
1773230436318157600,19.936157470703126,9.136273384094238,2.691082715988159,-0.524330198764801
1773230436334179000,19.952178955078125,9.48343276977539,2.477998733520508,-0.4884171485900879
1773230436346174000,19.964174072265624,9.691728591918945,2.387019157409668,-0.16519992053508759
1773230436358165200,19.976165283203127,10.02691650390625,2.5019407272338867,-0.16519992053508759
1773230436374157000,19.992156982421875,9.943120002746582,2.734178304672241,-0.16759411990642548
1773230436390179300,20.008179443359374,9.701305389404297,2.650381326675415,-0.05027823522686958
1773230436406171400,20.02417138671875,9.349357604980469,2.161964178085327,0.20111294090747833
1773230436422161000,20.040160888671874,9.23682975769043,2.1523873805999756,0.4118026793003082
1773230436438182100,20.05618212890625,9.299078941345215,2.6360161304473877,-0.0933738648891449
1773230436454174700,20.0721748046875,8.892065048217773,2.8850131034851074,-0.3758896589279175
1773230436470165800,20.088165771484373,8.257601737976074,2.5282769203186035,-0.3256114423274994
1773230436486156000,20.104156005859377,8.078036308288574,2.4396915435791016,-0.4118026793003082
1773230436502178600,20.120178466796876,8.219294548034668,2.6647465229034424,-0.1173158809542656
1773230436518170000,20.136170166015624,8.291120529174805,2.4229321479797363,-0.1388636976480484
1773230436534160600,20.15216064453125,8.197746276855469,1.8746598958969116,-0.06703764945268631
1773230436550153700,20.16815380859375,8.197746276855469,2.0590133666992188,-0.2992752194404602
1773230436565825500,20.183825439453123,8.710105895996094,2.6647465229034424,-0.3208230137825012
1773230436582166500,20.20016650390625,9.402029991149902,2.853888511657715,-0.021547814831137657
1773230436598157600,20.216157470703124,9.864110946655273,2.47560453414917,1.0797849893569946
1773230436614178600,20.232178466796874,9.830592155456543,2.1092917919158936,1.5083470344543457
1773230436630171000,20.2481708984375,9.66539192199707,2.229001760482788,1.41257905960083
1773230436646163000,20.264162841796875,10.383652687072754,2.691082715988159,1.4437036514282227
1773230436662152400,20.28015234375,10.66137981414795,2.3558945655822754,1.4700398445129395
1773230436678172700,20.296172607421877,9.670180320739746,1.8507179021835327,1.6376339197158813
1773230436694163500,20.31216357421875,9.354146003723145,2.3487119674682617,1.357512354850769
1773230436710156000,20.328156005859373,9.646238327026367,2.8155810832977295,1.0797849893569946
1773230436726178600,20.344178466796876,9.32541561126709,2.3702597618103027,0.9528923034667969
1773230436742169000,20.360169189453124,9.02135181427002,1.886630892753601,0.4405331015586853
1773230436758160100,20.37616015625,9.531316757202148,2.4468741416931152,0.05746084079146385
1773230436774181000,20.39218115234375,9.775525093078613,2.5546131134033203,0.15801730751991272
1773230436790174500,20.408174560546875,9.710882186889648,2.094926595687866,0.30885201692581177
1773230436806163200,20.4241630859375,9.500192642211914,1.944091796875,0.4165911078453064
1773230436822155800,20.44015576171875,9.643844604492188,2.3942017555236816,0.5291185975074768
1773230436838175700,20.45617578125,9.840168952941895,2.8634653091430664,0.2298433631658554
1773230436854169000,20.472169189453126,9.277531623840332,2.3080103397369385,0.3974374830722809
1773230436870161200,20.4881611328125,8.83699893951416,1.5466543436050415,0.5267243981361389
1773230436886181600,20.504181640625,8.992621421813965,1.778891921043396,0.6200982332229614
1773230436902173000,20.5201728515625,9.3828763961792,2.4157495498657227,0.4644751250743866
1773230436918164700,20.536164794921874,9.119514465332031,2.2218191623687744,0.21547815203666687
1773230436934154000,20.552154052734377,8.731653213500977,1.9081788063049316,0.2849099934101105
1773230436950179300,20.568179443359377,9.071630477905273,2.0159177780151367,0.3208230137825012
1773230436966168300,20.584168212890624,9.813833236694336,2.070984363555908,0.0454898327589035
1773230436982159400,20.600159423828124,10.074800491333008,2.027888774871826,0.33279404044151306
1773230436998182700,20.6161826171875,9.904812812805176,2.0877439975738525,0.05267243832349777
1773230437014172400,20.63217236328125,10.216058731079102,2.1547815799713135,-1.2497732639312744
