time,seconds_elapsed,z,y,x
1773231947712703000,0.302702880859375,3.3798723220825195,0.35046589374542236,0.1822507381439209
1773231947728726300,0.318726318359375,3.1646547317504883,0.6003950834274292,-0.09865325689315796
1773231947744717600,0.334717529296875,3.434436798095703,0.5577361583709717,-0.6427154541015625
1773231947760738300,0.35073828125,4.011246681213379,0.19508695602416992,-0.9958069324493408
1773231947776729600,0.3667294921875,2.873767852783203,0.31063878536224365,-0.4852885603904724
1773231947792723500,0.382723388671875,1.5794029235839844,0.33446359634399414,-0.18648070096969604
1773231947808744700,0.39874462890625,0.6268672943115234,0.1610180139541626,-0.2948540151119232
1773231947824735200,0.4147353515625,-0.3426189422607422,0.1101616621017456,-0.42061647772789
1773231947840727300,0.430727294921875,-1.2959842681884766,0.12221014499664307,-0.21510213613510132
1773231947856718800,0.44671875,-2.1255202293395996,0.17701280117034912,-0.08535140752792358
1773231947872739600,0.462739501953125,-2.379481792449951,0.22238075733184814,0.02240300178527832
1773231947888729900,0.478729736328125,-1.9886937141418457,0.03505086898803711,0.16915157437324524
1773231947904720600,0.494720703125,-1.6184625625610352,-0.1447157859802246,0.03952676057815552
1773231947920743200,0.5107431640625,-2.0203661918640137,-0.4652736186981201,0.39547041058540344
1773231947936734700,0.526734619140625,-2.580644130706787,0.05881333351135254,0.1480853259563446
1773231947952726800,0.542726806640625,-2.8845696449279785,0.10441625118255615,-0.16486987471580505
1773231947968717600,0.558717529296875,-3.1098971366882324,-0.056008338928222656,-0.12196353077888489
1773231947984737500,0.574737548828125,-3.4727439880371094,-0.26104736328125,0.04469993710517883
1773231948000729300,0.590729248046875,-3.282111644744873,-0.2559778690338135,0.13088849186897278
1773231948016722200,0.60672216796875,-2.4743552207946777,0.03236508369445801,0.10344269871711731
1773231948040744700,0.63074462890625,-1.123295783996582,-0.06630635261535645,-0.31769442558288574
1773231948056731100,0.646731201171875,-0.514409065246582,-0.08846688270568848,-0.48989778757095337
1773231948072723200,0.66272314453125,-0.26831531524658203,0.01734304428100586,-0.3934869170188904
1773231948088743200,0.6787431640625,-0.3847007751464844,0.030389070510864258,-0.3176368474960327
1773231948104733400,0.6947333984375,0.07362747192382812,0.11775851249694824,-0.47984105348587036
1773231948120724500,0.710724365234375,1.262796401977539,0.2441082000732422,-0.5859910249710083
1773231948136717600,0.726717529296875,2.4430904388427734,0.020157337188720703,-0.736490786075592
1773231948152739000,0.742739013671875,2.9521541595458984,-0.11361336708068848,-0.18075352907180786
1773231948176726300,0.766726318359375,1.7828140258789062,0.2284679412841797,0.1854972243309021
1773231948192716500,0.782716552734375,0.9474849700927734,-0.16454529762268066,0.047567665576934814
1773231948208738600,0.798738525390625,0.9544868469238281,0.44713902473449707,-1.0180021524429321
1773231948224729000,0.81472900390625,1.952981948852539,0.7541825771331787,-1.913609504699707
1773231948240721000,0.830720947265625,4.441205024719238,0.24212026596069336,-1.904929280281067
1773231948256741600,0.84674169921875,6.731839179992676,-0.7368078231811523,-1.1756865978240967
1773231948272733200,0.862733154296875,6.697396278381348,-1.4146084785461426,-0.48303139209747314
1773231948288723500,0.878723388671875,4.880643844604492,-1.3440262079238892,0.06419694423675537
1773231948304716500,0.894716552734375,2.631092071533203,-1.2751356363296509,0.4347587823867798
1773231948320737800,0.91073779296875,1.0188608169555664,-1.5048083066940308,0.9814696311950684
1773231948336729600,0.9267294921875,0.19639015197753906,-1.852552890777588,1.0369343757629395
1773231948352721000,0.942720947265625,-0.43798065185546875,-1.7269034385681152,1.3844718933105469
1773231948368742100,0.9587421875,-1.0132474899291992,-1.4445648193359375,2.0241222381591797
1773231948384734000,0.97473388671875,-2.4932074546813965,-1.4791696071624756,0.9452605247497559
1773231948400722200,0.99072216796875,-3.1192994117736816,-1.5578985214233398,-0.578028678894043
1773231948416714800,1.00671484375,-2.86887264251709,-1.4251878261566162,-0.6566622257232666
1773231948432737000,1.022737060546875,-2.3526015281677246,-0.9802486896514893,-0.48026180267333984
1773231948448727300,1.038727294921875,-2.3412270545959473,-1.0966849327087402,0.010010719299316406
1773231948464720400,1.054720458984375,-2.696640968322754,-1.314417839050293,0.690902590751648
1773231948480740600,1.07074072265625,-3.1123204231262207,-1.2337758541107178,1.709637999534607
1773231948496733000,1.08673291015625,-3.148003578186035,-0.9306745529174805,3.4126906394958496
1773231948512723500,1.102723388671875,-3.1131362915039062,-0.8427846431732178,4.394102573394775
1773231948528714000,1.1187138671875,-3.3579797744750977,-0.953784704208374,4.116577625274658
1773231948544736500,1.134736572265625,-3.4669575691223145,-0.9158802032470703,2.6820907592773438
1773231948560726800,1.150726806640625,-2.482039451599121,-1.0541868209838867,1.3824509382247925
1773231948576720600,1.166720703125,-0.8518209457397461,-1.6706922054290771,1.6800860166549683
1773231948592742000,1.182741943359375,1.2075386047363281,-0.9246406555175781,1.5391347408294678
1773231948608731000,1.19873095703125,2.5572500228881836,-0.24130582809448242,0.9202879071235657
1773231948624722700,1.21472265625,2.4589357376098633,-0.20736360549926758,-0.006609678268432617
1773231948640745200,1.2307451171875,1.7564935684204102,-0.16190433502197266,-0.32226061820983887
1773231948656735700,1.24673583984375,1.5161476135253906,0.13884806632995605,0.25976645946502686
1773231948672726800,1.262726806640625,2.027310371398926,0.1275327205657959,0.3961832523345947
1773231948688719400,1.27871923828125,2.7243518829345703,-0.28472352027893066,-0.4060547351837158
1773231948704740600,1.29474072265625,3.0493173599243164,-0.505424976348877,-0.7644761800765991
1773231948720729900,1.310729736328125,3.1511573791503906,-0.3027217388153076,-0.4123736619949341
1773231948736724000,1.326723876953125,3.130621910095215,-0.20837092399597168,-0.3126133680343628
1773231948752714500,1.342714599609375,3.4758100509643555,-0.7422165870666504,-0.5653791427612305
1773231948768734700,1.358734619140625,4.045655250549316,-0.876168966293335,-0.966793417930603
1773231948784726500,1.3747265625,4.125189781188965,-1.373303771018982,-0.8948193788528442
1773231948800717300,1.39071728515625,3.306293487548828,-1.6999056339263916,-0.5054179430007935
1773231948816740600,1.40674072265625,1.942234992980957,-1.7723324298858643,-0.5683817863464355
1773231948832730400,1.42273046875,0.35036277770996094,-1.5348396301269531,-0.9186880588531494
1773231948848722000,1.438721923828125,-0.8841285705566406,-1.0954620838165283,-1.1585628986358643
1773231948864741600,1.45474169921875,-2.0099453926086426,-0.8868279457092285,-1.0834403038024902
1773231948880734500,1.470734375,-2.0936989784240723,-0.8382973670959473,-0.9902307391166687
1773231948896727000,1.48672705078125,-1.5206289291381836,-1.1317203044891357,-0.671887218952179
1773231948912717300,1.50271728515625,-1.2882614135742188,-1.3451639413833618,-0.08989274501800537
1773231948928739000,1.518739013671875,-1.8008203506469727,-1.1920263767242432,0.3837957978248596
1773231948944731000,1.53473095703125,-2.7463107109069824,-0.8897420167922974,0.42458274960517883
1773231948960722200,1.55072216796875,-3.491901397705078,-0.42269229888916016,0.2755081057548523
1773231948976743400,1.566743408203125,-3.85831356048584,0.018290042877197266,0.07761579751968384
1773231948992734200,1.582734130859375,-3.9653730392456055,0.1838092803955078,-0.11395859718322754
1773231949008726300,1.598726318359375,-3.655940532684326,0.2510087490081787,-0.12779051065444946
1773231949024717300,1.61471728515625,-2.8919119834899902,0.19099211692810059,0.153916597366333
1773231949040739300,1.6307392578125,-1.9748306274414062,0.12685370445251465,0.13288342952728271
1773231949056731100,1.646731201171875,-1.1922492980957031,0.28125476837158203,-0.31029003858566284
1773231949072722000,1.662721923828125,-0.7011270523071289,0.23747491836547852,-0.4960007071495056
1773231949088742700,1.67874267578125,0.13945293426513672,0.09164118766784668,-0.3724079728126526
1773231949104733200,1.694733154296875,0.9138698577880859,-0.04150509834289551,-0.2793429493904114
1773231949120725500,1.7107255859375,1.8514347076416016,0.047271013259887695,-0.5255762338638306
1773231949136717300,1.72671728515625,2.207200050354004,0.018767356872558594,-0.700534999370575
1773231949152738800,1.74273876953125,2.1529273986816406,0.08210921287536621,-0.3203588128089905
1773231949168729900,1.758729736328125,1.8081722259521484,0.06338143348693848,0.2479328215122223
1773231949184721200,1.77472119140625,1.8530702590942383,-0.09947752952575684,0.3941025733947754
1773231949200743000,1.790742919921875,1.8782978057861328,-0.13363075256347656,0.3959451913833618
1773231949216734500,1.806734375,1.5094623565673828,-0.19118618965148926,0.6428197026252747
1773231949232725000,1.82272509765625,1.1714553833007812,-0.3193392753601074,0.7928067445755005
1773231949248716500,1.838716552734375,2.4434127807617188,-0.502535343170166,0.33171403408050537
1773231949264735700,1.85473583984375,4.631985664367676,-1.2128586769104004,-0.6049326062202454
1773231949280729600,1.8707294921875,5.749268531799316,-2.0597338676452637,-1.024787425994873
1773231949296721000,1.886720947265625,4.557805061340332,-2.369135618209839,-0.34069812297821045
1773231949312742700,1.90274267578125,2.0449419021606445,-1.9488738775253296,0.3377935290336609
1773231949328733700,1.918733642578125,-0.44713687896728516,-1.6274025440216064,1.108525276184082
1773231949344722700,1.93472265625,-1.8205466270446777,-1.310576319694519,1.2056077718734741
1773231949360716500,1.950716552734375,-2.1954574584960938,-1.1447227001190186,1.0882943868637085
1773231949376736300,1.966736328125,-1.9111814498901367,-1.1497738361358643,0.6961849331855774
1773231949392728600,1.982728515625,-1.3054733276367188,-1.2044126987457275,0.3013944625854492
1773231949408719400,1.99871923828125,-1.0900325775146484,-1.295949101448059,0.25862789154052734
1773231949424740000,2.014739990234375,-1.3244209289550781,-1.193438172340393,0.3947085738182068
1773231949440733200,2.030733154296875,-1.6590662002563477,-1.0419952869415283,0.6078207492828369
1773231949456724200,2.04672412109375,-2.283724784851074,-0.9298182725906372,0.7040921449661255
1773231949472715000,2.062715087890625,-3.024272918701172,-0.7937262058258057,0.8139721751213074
1773231949488737300,2.0787373046875,-2.2279610633850098,-0.4138079881668091,1.1879322528839111
1773231949504728600,2.094728515625,-2.5028672218322754,-0.8515983819961548,0.913489043712616
1773231949520718300,2.11071826171875,-2.1953673362731934,-0.646945595741272,1.0075145959854126
1773231949536742000,2.126741943359375,-2.266022205352783,-0.4082902669906616,1.258955717086792
1773231949552733000,2.14273291015625,-2.041990280151367,-0.18968844413757324,1.270384430885315
1773231949568721400,2.158721435546875,-1.5865435600280762,-0.1179053783416748,0.8364230394363403
1773231949584713500,2.17471337890625,-0.48636913299560547,-0.0876467227935791,0.590538501739502
1773231949600736000,2.190736083984375,0.5764636993408203,-0.22546839714050293,0.5132821798324585
1773231949616727000,2.20672705078125,0.8927249908447266,-0.2739318609237671,0.5864101648330688
1773231949632719400,2.22271923828125,0.7111730575561523,0.04072737693786621,0.7205753326416016
1773231949648742000,2.238741943359375,0.5874519348144531,0.0787348747253418,0.80885249376297
1773231949664732200,2.254732177734375,0.9041900634765625,0.05677962303161621,0.5202153921127319
1773231949680723500,2.270723388671875,1.4017229080200195,0.0399775505065918,-0.018577277660369873
1773231949696714200,2.28671435546875,1.9783658981323242,-0.03659415245056152,-0.06789553165435791
1773231949712736500,2.302736572265625,2.6220102310180664,0.0776369571685791,-0.13970983028411865
1773231949728727600,2.3187275390625,3.3305587768554688,0.10545539855957031,-0.5410789251327515
1773231949744717300,2.33471728515625,4.360561370849609,-0.16837859153747559,-0.985552191734314
1773231949760740000,2.350739990234375,5.44981575012207,-0.6681523323059082,-1.1368266344070435
1773231949776732200,2.366732177734375,5.653502464294434,-1.3280872106552124,-1.1604197025299072
1773231949792722200,2.38272216796875,4.60025691986084,-1.841775894165039,-0.7259074449539185
1773231949808743200,2.3987431640625,2.6988296508789062,-1.9437700510025024,-0.5217623710632324
1773231949824734700,2.414734619140625,0.8284006118774414,-1.8840091228485107,-0.6721758842468262
1773231949840727000,2.43072705078125,-1.0538549423217773,-1.5920906066894531,-0.7636538743972778
1773231949856718300,2.44671826171875,-2.8193655014038086,-1.3254029750823975,-0.4590834379196167
1773231949872738300,2.46273828125,-3.438807487487793,-1.2310891151428223,-0.06312274932861328
1773231949888730000,2.478730224609375,-2.632617950439453,-1.4621853828430176,0.04393184185028076
1773231949904722000,2.494721923828125,-1.1147632598876953,-1.586546778678894,0.2201210856437683
1773231949920743000,2.510742919921875,-0.5987348556518555,-1.5726481676101685,0.3672773241996765
1773231949936736300,2.526736328125,-1.6977286338806152,-1.2078206539154053,0.3366113305091858
1773231949952725800,2.542725830078125,-3.263044834136963,-0.7377676963806152,0.48888182640075684
1773231949968717800,2.5587177734375,-4.083873748779297,-0.4600609540939331,0.7165625095367432
1773231949984736500,2.574736572265625,-3.8648648262023926,-0.3285708427429199,0.808313250541687
1773231950000730600,2.590730712890625,-3.41021728515625,-0.008227109909057617,0.9709528684616089
1773231950016722000,2.606721923828125,-2.859658718109131,-0.02977275848388672,0.4103010296821594
1773231950032743000,2.622742919921875,-2.580751419067383,-0.019528627395629883,0.10657238960266113
1773231950048734500,2.638734375,-1.901686191558838,0.2839491367340088,0.2471555471420288
1773231950064725200,2.654725341796875,-0.9596700668334961,0.39881038665771484,0.375230073928833
1773231950080717000,2.670717041015625,-0.022850990295410156,0.37032175064086914,0.3500683307647705
1773231950096739600,2.686739501953125,0.41450977325439453,0.5879309177398682,0.13351798057556152
1773231950112729600,2.7027294921875,0.8552303314208984,0.8385539054870605,-0.14511311054229736
1773231950128721000,2.718720947265625,1.7098236083984375,0.7443966865539551,-0.37271690368652344
1773231950144742400,2.734742431640625,2.3928918838500977,0.6334030628204346,-0.6469017267227173
1773231950160734200,2.750734130859375,2.484376907348633,0.8329246044158936,-0.38657987117767334
1773231950176725500,2.7667255859375,2.276726722717285,0.7579667568206787,-0.24666476249694824
1773231950192717000,2.782717041015625,2.1223106384277344,0.46131443977355957,-0.6157705783843994
1773231950208738300,2.79873828125,2.385199546813965,0.7260527610778809,-0.5520477294921875
1773231950224729600,2.8147294921875,2.194064140319824,1.4527318477630615,-0.5229341983795166
1773231950240720600,2.830720703125,2.0198049545288086,1.9533493518829346,-1.0827898979187012
1773231950256742700,2.84674267578125,2.456913948059082,1.8362467288970947,-1.8382861614227295
1773231950272733700,2.862733642578125,3.5237913131713867,1.0196459293365479,-2.833839178085327
1773231950288725200,2.878725341796875,4.297191619873047,-0.3030233383178711,-2.515101194381714
1773231950304714800,2.89471484375,3.5107784271240234,-1.3509693145751953,-0.5870373249053955
1773231950320737800,2.91073779296875,1.4716253280639648,-2.07716703414917,1.5316184759140015
1773231950336726800,2.926726806640625,-0.45712852478027344,-1.4341554641723633,1.9354522228240967
1773231950352719600,2.9427197265625,-1.6274118423461914,-1.373762607574463,1.6600652933120728
1773231950368742000,2.958741943359375,-0.7359390258789062,-1.3518831729888916,0.5921041965484619
1773231950384733400,2.9747333984375,-1.0496501922607422,-1.672846794128418,0.019707679748535156
1773231950400725000,2.99072509765625,-1.3645429611206055,-1.7259037494659424,0.17637991905212402
1773231950416716300,3.00671630859375,-2.629906177520752,-1.6791143417358398,0.5804181098937988
1773231950432734700,3.022734619140625,-3.800755500793457,-1.5825986862182617,1.0939595699310303
1773231950448728600,3.038728515625,-5.112533092498779,-1.5513060092926025,1.5436477661132812
1773231950464717800,3.0547177734375,-5.221857070922852,-1.8782014846801758,2.3988027572631836
1773231950480740400,3.070740234375,-5.973269939422607,-2.362687349319458,3.3052759170532227
1773231950496487200,3.086487060546875,-5.8963727951049805,-2.222479820251465,3.5779290199279785
1773231950512724500,3.102724365234375,-4.920629501342773,-1.8413562774658203,3.4408090114593506
1773231950528713200,3.118713134765625,-4.314533233642578,-1.4085781574249268,2.8592283725738525
1773231950544736800,3.13473681640625,-5.209657192230225,-1.5388803482055664,2.9238061904907227
1773231950560726500,3.1507265625,-5.8137311935424805,-2.130636692047119,3.4510648250579834
1773231950576717800,3.1667177734375,-5.00699520111084,-2.704815149307251,4.219704627990723
1773231950592739800,3.18273974609375,-3.9754323959350586,-3.1196351051330566,4.6603851318359375
1773231950608732200,3.198732177734375,-3.6988635063171387,-3.5418710708618164,4.695313930511475
1773231950624724200,3.21472412109375,-4.24013614654541,-4.2114033699035645,4.754116535186768
1773231950640714800,3.23071484375,-4.313103675842285,-4.678633689880371,3.787292003631592
1773231950656737300,3.2467373046875,-3.474519729614258,-5.124527454376221,2.9941654205322266
1773231950672727300,3.262727294921875,-2.5691545009613037,-5.615724563598633,1.155083179473877
1773231950688717800,3.2787177734375,-3.5232369899749756,-6.491287708282471,0.3016018867492676
1773231950704741600,3.29474169921875,-4.963679790496826,-7.176779747009277,0.3569965362548828
1773231950720730600,3.310730712890625,-5.8688507080078125,-7.605836868286133,-2.2052831649780273
1773231950736722400,3.326722412109375,-3.432652473449707,-7.749677658081055,-3.394505500793457
1773231950752713700,3.342713623046875,-1.2683788537979126,-8.18078899383545,-4.826033592224121
1773231950768735500,3.358735595703125,-0.7564277648925781,-8.439011573791504,-5.200183868408203
1773231950784726800,3.374726806640625,-0.6065496206283569,-8.864242553710938,-5.305444717407227
1773231950800718600,3.390718505859375,-0.4761848449707031,-9.116168975830078,-5.359057426452637
1773231950816740400,3.406740234375,-0.41859161853790283,-9.462486267089844,-5.530804634094238
1773231950832731400,3.4227314453125,-0.42197054624557495,-9.310407638549805,-6.447086334228516
1773231950848723000,3.438722900390625,0.01066809892654419,-9.038081169128418,-6.593111991882324
1773231950864744200,3.454744140625,-0.24796339869499207,-8.49478530883789,-6.629511833190918
1773231950880735500,3.470735595703125,-0.10710996389389038,-7.401923656463623,-6.256586074829102
1773231950896725800,3.486725830078125,0.5101550817489624,-5.509456157684326,-6.349737167358398
1773231950912716300,3.50271630859375,1.1127967834472656,-2.8967790603637695,-7.5180158615112305
1773231950928738600,3.518738525390625,1.5568474531173706,-0.5363388061523438,-9.01351261138916
1773231950944730400,3.53473046875,1.1850441694259644,0.8005671501159668,-9.242902755737305
1773231950960719600,3.5507197265625,1.1555854082107544,1.6071696281433105,-7.955780982971191
1773231950976712200,3.566712158203125,1.6131525039672852,2.2023913860321045,-6.169681549072266
1773231950992735000,3.58273486328125,1.8676726818084717,2.5951900482177734,-4.479848384857178
1773231951008724700,3.598724853515625,2.0758960247039795,3.0005195140838623,-3.6508536338806152
1773231951024717600,3.614717529296875,1.8210761547088623,3.305267095565796,-3.7052297592163086
1773231951040738300,3.63073828125,1.8425960540771484,3.371751546859741,-3.5475597381591797
1773231951056730400,3.64673046875,2.166714668273926,3.4783198833465576,-3.329249858856201
1773231951072721200,3.66272119140625,2.457400321960449,3.8299975395202637,-3.295870304107666
1773231951088743700,3.67874365234375,2.6312434673309326,4.0918073654174805,-3.1852173805236816
1773231951104733700,3.694733642578125,2.7684857845306396,4.294145584106445,-3.090611457824707
1773231951120724500,3.710724365234375,2.910640239715576,4.04280948638916,-3.145040988922119
1773231951136717000,3.726717041015625,3.194349765777588,3.584953784942627,-3.415984630584717
1773231951152739300,3.7427392578125,3.6679346561431885,3.1405253410339355,-3.88901424407959
1773231951168727300,3.758727294921875,4.10401725769043,2.6419153213500977,-5.029354572296143
1773231951184721200,3.77472119140625,4.132189750671387,2.588174343109131,-6.215027809143066
1773231951200743000,3.790742919921875,3.715970993041992,2.76593017578125,-6.9752044677734375
1773231951216734000,3.80673388671875,3.4228463172912598,2.1747708320617676,-7.9667816162109375
1773231951232725200,3.822725341796875,3.696866512298584,1.0231471061706543,-8.972732543945312
1773231951248715300,3.83871533203125,4.40754508972168,1.1086177825927734,-9.366918563842773
1773231951264738000,3.854738037109375,4.706811904907227,1.6780638694763184,-9.638545989990234
1773231951280726800,3.870726806640625,3.989992141723633,2.265918254852295,-10.03168773651123
1773231951296720400,3.886720458984375,2.8065662384033203,2.066741466522217,-10.974428176879883
1773231951312742100,3.9027421875,1.9989216327667236,1.0566802024841309,-11.953729629516602
1773231951328733000,3.91873291015625,1.554088830947876,-0.5644564628601074,-12.009505271911621
1773231951344723200,3.93472314453125,1.2043617963790894,-2.409313201904297,-11.387603759765625
1773231951360747000,3.9507470703125,1.2924031019210815,-4.235863208770752,-9.94387435913086
1773231951376737300,3.9667373046875,1.4277633428573608,-5.238996505737305,-7.934058666229248
1773231951392728800,3.982728759765625,1.1847926378250122,-5.4032745361328125,-6.066584587097168
1773231951408720100,3.99872021484375,0.6955185532569885,-5.583523750305176,-4.193362236022949
1773231951424740600,4.01474072265625,0.271795392036438,-5.656449794769287,-2.4493465423583984
1773231951440733400,4.0307333984375,-0.2116326093673706,-5.936631679534912,-0.8305549621582031
1773231951456721700,4.0467216796875,-0.7348860502243042,-6.218344688415527,0.34641075134277344
1773231951472744700,4.06274462890625,-1.211968183517456,-6.395237445831299,1.659151554107666
1773231951488735700,4.07873583984375,-1.3289062976837158,-6.830660820007324,3.2184886932373047
1773231951504727600,4.0947275390625,-1.290255069732666,-6.984352111816406,4.786691188812256
1773231951520719600,4.1107197265625,-1.329529047012329,-7.063722133636475,5.705399513244629
1773231951536741600,4.12674169921875,-1.4829375743865967,-7.281529903411865,6.221467018127441
1773231951552732400,4.142732421875,-1.652116298675537,-7.4202985763549805,6.627306938171387
1773231951568723500,4.158723388671875,-1.8532365560531616,-7.409976005554199,7.070865631103516
1773231951584715500,4.174715576171875,-1.9501919746398926,-7.514657020568848,7.512425422668457
1773231951600736800,4.19073681640625,-1.9539434909820557,-7.768199920654297,7.6250505447387695
1773231951616726800,4.206726806640625,-1.9482189416885376,-7.894831657409668,7.908839225769043
1773231951632719400,4.22271923828125,-2.0496878623962402,-8.210826873779297,7.768965721130371
1773231951648738300,4.23873828125,-2.2431962490081787,-8.583370208740234,7.559617519378662
1773231951664731100,4.254731201171875,-2.393232583999634,-8.915056228637695,7.334353446960449
1773231951680722000,4.270721923828125,-2.57855486869812,-9.212230682373047,6.945283889770508
1773231951696714800,4.28671484375,-2.6159441471099854,-9.257186889648438,6.503007411956787
1773231951712736800,4.30273681640625,-2.2470903396606445,-9.509596824645996,5.895648002624512
1773231951728726300,4.318726318359375,-1.7674651145935059,-9.934632301330566,4.971555709838867
1773231951744718300,4.33471826171875,-1.626041293144226,-10.056053161621094,3.7703542709350586
1773231951760740400,4.350740234375,-1.8066167831420898,-10.236854553222656,2.531487464904785
1773231951776730400,4.36673046875,-1.9982496500015259,-10.15173053741455,1.3357925415039062
1773231951792721700,4.3827216796875,-1.965834379196167,-10.04910659790039,0.2993011474609375
1773231951808712400,4.39871240234375,-1.5323560237884521,-9.55882740020752,-0.8388538360595703
1773231951824736000,4.414736083984375,-0.8680739998817444,-9.084385871887207,-2.2420005798339844
1773231951840724500,4.430724365234375,-0.12960338592529297,-8.49997615814209,-3.6084518432617188
1773231951856718600,4.446718505859375,0.4466536045074463,-7.513873100280762,-4.296230316162109
1773231951872739600,4.462739501953125,0.8066157102584839,-6.012020111083984,-4.057923316955566
1773231951888731600,4.478731689453125,0.8545118570327759,-4.181510925292969,-3.25750732421875
1773231951904721400,4.494721435546875,0.6475701332092285,-2.5724477767944336,-2.7247962951660156
1773231951920743200,4.5107431640625,0.13818156719207764,-1.4003880023956299,-2.438481330871582
1773231951936734200,4.526734130859375,-0.5521960258483887,-0.7163815498352051,-2.3183412551879883
1773231951952726500,4.5427265625,-1.0010509490966797,-0.41065406799316406,-2.211052894592285
1773231951968717600,4.558717529296875,-0.9783234596252441,-0.14551877975463867,-1.9118614196777344
1773231951984737800,4.57473779296875,-0.718734860420227,-0.05356168746948242,-1.6760663986206055
1773231952000730400,4.59073046875,-0.4963318109512329,0.535132884979248,-1.9270639419555664
1773231952016722000,4.606721923828125,-0.36287760734558105,1.0880203247070312,-2.461242198944092
1773231952032744200,4.622744140625,-0.03765523433685303,1.6635613441467285,-3.2312378883361816
1773231952048735200,4.6387353515625,0.34151482582092285,2.320507049560547,-3.766690254211426
1773231952064724500,4.654724365234375,0.5660920143127441,2.9283320903778076,-4.320374965667725
1773231952080717300,4.67071728515625,0.8664035797119141,3.4566309452056885,-4.799509525299072
1773231952096738000,4.686738037109375,1.3104746341705322,3.9429073333740234,-5.008945465087891
1773231952112729300,4.702729248046875,1.776116132736206,4.3005876541137695,-5.490272521972656
1773231952128722000,4.718721923828125,2.032445192337036,4.402039051055908,-6.3678107261657715
1773231952144743200,4.7347431640625,2.2517940998077393,4.2930097579956055,-7.232362747192383
1773231952160731600,4.750731689453125,2.671191453933716,4.1400322914123535,-7.749569892883301
1773231952176725800,4.766725830078125,3.2285635471343994,4.178821086883545,-8.06137466430664
1773231952192715000,4.782715087890625,3.5936119556427,4.383426666259766,-8.39753246307373
1773231952208736500,4.798736572265625,3.831970691680908,4.467146873474121,-8.866549491882324
1773231952224729900,4.814729736328125,4.079931735992432,3.2976632118225098,-10.139936447143555
1773231952240719000,4.830718994140625,4.313940048217773,2.460756778717041,-11.358587265014648
1773231952256742400,4.846742431640625,4.634990215301514,2.690929412841797,-11.6383056640625
1773231952272733400,4.8627333984375,4.411845684051514,3.2723684310913086,-11.562166213989258
1773231952288725200,4.878725341796875,3.4595401287078857,3.133305072784424,-11.369963645935059
1773231952304716800,4.894716796875,2.7579345703125,2.445096492767334,-11.083354949951172
1773231952320738600,4.910738525390625,2.5598881244659424,0.9586443901062012,-10.69605827331543
1773231952336729300,4.926729248046875,2.295650005340576,-0.8646702766418457,-10.19305419921875
1773231952352720000,4.942719970703125,1.8801970481872559,-2.276334285736084,-9.3702392578125
1773231952368739800,4.95873974609375,1.4896190166473389,-3.2635498046875,-8.468923568725586
1773231952384732400,4.974732421875,1.2110810279846191,-3.9447073936462402,-7.4415178298950195
1773231952400724200,4.99072412109375,1.0097522735595703,-4.300996780395508,-6.3200297355651855
1773231952416713000,5.006712890625,0.6912822127342224,-4.533609867095947,-4.9868316650390625
1773231952432737300,5.0227373046875,0.736224353313446,-5.025346279144287,-3.458005905151367
1773231952448727800,5.038727783203125,0.596258819103241,-5.590893268585205,-1.4624462127685547
1773231952464720000,5.054719970703125,0.6631730794906616,-5.967901229858398,0.7654237747192383
1773231952480740400,5.070740234375,0.6685273051261902,-6.210081577301025,2.109096050262451
1773231952496730600,5.086730712890625,0.4550989270210266,-6.5522356033325195,3.2750120162963867
1773231952512723200,5.10272314453125,0.33858007192611694,-6.771707057952881,4.394397735595703
1773231952528715800,5.1187158203125,0.39545097947120667,-6.80320405960083,4.969931602478027
1773231952544736000,5.134736083984375,0.07520008087158203,-6.856540679931641,5.29376220703125
1773231952560726500,5.1507265625,-0.3994652330875397,-7.024262428283691,5.43049955368042
1773231952576718300,5.16671826171875,-0.8114032745361328,-7.329324722290039,5.320950508117676
1773231952592740400,5.182740234375,-1.0380436182022095,-7.522240161895752,5.983489036560059
1773231952608733000,5.19873291015625,-1.1143410205841064,-7.7263875007629395,6.538410186767578
1773231952624722000,5.214721923828125,-1.1552435159683228,-8.08459758758545,6.830833435058594
1773231952640714800,5.23071484375,-1.2398173809051514,-8.41634464263916,6.8020477294921875
1773231952656736800,5.24673681640625,-1.3153941631317139,-8.802091598510742,6.522805213928223
1773231952672726000,5.26272607421875,-1.547143578529358,-9.006125450134277,5.9581146240234375
1773231952688717000,5.278717041015625,-1.8987205028533936,-9.095172882080078,5.55259370803833
1773231952704740600,5.29474072265625,-1.9791016578674316,-9.22739028930664,5.222607135772705
1773231952720731000,5.31073095703125,-1.5845825672149658,-9.607548713684082,4.612006664276123
1773231952736722000,5.326721923828125,-0.9975824356079102,-9.751138687133789,4.079202651977539
1773231952752744700,5.34274462890625,-0.5880768299102783,-9.890443801879883,3.3198976516723633
1773231952768736500,5.358736572265625,-0.6107176542282104,-9.528951644897461,2.5408082008361816
1773231952784726800,5.374726806640625,-0.6576310396194458,-8.900018692016602,1.7748150825500488
1773231952800716500,5.390716552734375,-0.45465409755706787,-8.130735397338867,1.0333366394042969
1773231952816740400,5.406740234375,0.14035797119140625,-7.40907096862793,0.2411174774169922
1773231952832730400,5.42273046875,0.6628357172012329,-6.911932945251465,-0.8895168304443359
1773231952848723000,5.438722900390625,0.8630897998809814,-6.444191932678223,-1.8067455291748047
1773231952864713200,5.454713134765625,0.7019352912902832,-5.865457057952881,-2.463931083679199
1773231952880734200,5.470734130859375,0.2467057704925537,-4.889047622680664,-2.035773277282715
1773231952896727000,5.48672705078125,-0.08015072345733643,-3.6244447231292725,-1.0697650909423828
1773231952912717800,5.5027177734375,-0.2577584981918335,-2.268120288848877,-0.6571187973022461
1773231952928738300,5.51873828125,-0.4265228509902954,-1.1580548286437988,-0.6885976791381836
1773231952944731600,5.534731689453125,-0.5463036298751831,-0.48540735244750977,-1.0553245544433594
1773231952960962800,5.550962890625,-0.8322035074234009,-0.29813432693481445,-1.4223384857177734
1773231952976649500,5.5666494140625,-0.9446210861206055,-0.09981060028076172,-1.2653560638427734
1773231952992641300,5.582641357421875,-0.7807031869888306,0.14056921005249023,-0.6159954071044922
1773231953008662300,5.598662353515625,-0.5957201719284058,0.2584853172302246,-0.7504234313964844
1773231953024654000,5.614654052734375,-0.40100181102752686,0.4749774932861328,-1.2279562950134277
1773231953040675600,5.630675537109375,-0.22514843940734863,0.8920478820800781,-1.9470901489257812
1773231953056668200,5.646668212890625,-0.21187257766723633,1.3693337440490723,-2.7247438430786133
1773231953072658200,5.662658203125,-0.2821589708328247,1.8951568603515625,-3.343258857727051
1773231953088678400,5.678678466796875,-0.06737697124481201,2.291231155395508,-3.713040351867676
1773231953104670500,5.69467041015625,0.31522154808044434,2.8049354553222656,-3.9330129623413086
1773231953120662000,5.710662109375,0.5925649404525757,3.3820953369140625,-4.549946308135986
1773231953136653800,5.72665380859375,0.618715226650238,3.587841033935547,-5.716159343719482
1773231953152675300,5.74267529296875,0.5407066941261292,3.6108765602111816,-6.909566402435303
1773231953168665000,5.7586650390625,0.7797335386276245,3.6877388954162598,-7.688474655151367
1773231953184658400,5.774658447265625,1.0765700340270996,3.7849502563476562,-8.345239639282227
1773231953200678400,5.790678466796875,1.170670509338379,3.8524880409240723,-8.95962905883789
1773231953216669700,5.806669677734375,1.1011083126068115,2.8158059120178223,-10.517340660095215
1773231953232661800,5.822661865234375,1.4301199913024902,1.9749293327331543,-11.968032836914062
1773231953248652800,5.83865283203125,2.1260290145874023,2.6029348373413086,-12.411130905151367
1773231953264674800,5.8546748046875,2.3502135276794434,3.643315315246582,-12.117565155029297
1773231953280664300,5.870664306640625,1.8258600234985352,4.256053924560547,-11.732613563537598
1773231953296656400,5.886656494140625,1.3637638092041016,3.849057674407959,-11.497115135192871
1773231953312679200,5.90267919921875,1.2625656127929688,2.592851161956787,-10.947260856628418
1773231953328669200,5.918669189453125,1.2949615716934204,1.0787830352783203,-10.140445709228516
1773231953344661200,5.9346611328125,1.4310393333435059,-0.2858443260192871,-8.972921371459961
1773231953360651500,5.950651611328125,1.4767664670944214,-1.3526830673217773,-7.664976596832275
1773231953376671700,5.966671630859375,1.2346675395965576,-1.6597352027893066,-6.389223575592041
1773231953392664600,5.98266455078125,0.803071141242981,-1.6791067123413086,-5.410783290863037
1773231953408657200,5.9986572265625,0.15800142288208008,-1.945932388305664,-4.453401565551758
1773231953424678700,6.0146787109375,0.09655988216400146,-2.421943187713623,-3.1209049224853516
1773231953440668400,6.03066845703125,0.4704957604408264,-3.1581525802612305,-1.6732330322265625
1773231953456660500,6.046660400390625,0.9293988943099976,-4.067607879638672,-0.1777181625366211
1773231953472650800,6.062650634765625,1.3297098875045776,-4.669490337371826,1.2282047271728516
1773231953488673300,6.07867333984375,1.4604425430297852,-5.110597133636475,2.4370059967041016
1773231953504665000,6.0946650390625,1.3361643552780151,-5.439453601837158,3.3101625442504883
1773231953520655400,6.1106552734375,0.9635623693466187,-5.693821907043457,3.985037326812744
1773231953536677600,6.126677734375,0.61790931224823,-5.876101016998291,4.4906005859375
1773231953552669200,6.142669189453125,0.4121711254119873,-6.018518924713135,4.981713771820068
1773231953568660200,6.15866015625,0.35549652576446533,-6.184054374694824,5.3865485191345215
1773231953584650800,6.174650634765625,0.3686731457710266,-6.512599468231201,5.742648601531982
1773231953600671200,6.190671142578125,0.528852641582489,-6.836841583251953,6.152986526489258
1773231953616662500,6.20666259765625,0.5532693862915039,-6.988816261291504,6.538286209106445
1773231953632653800,6.22265380859375,0.4409445524215698,-7.1276774406433105,6.740505695343018
1773231953648675800,6.23867578125,0.3280351161956787,-7.399109363555908,6.534337043762207
1773231953664666600,6.25466650390625,0.12036383152008057,-7.8075690269470215,6.081480026245117
1773231953680658400,6.270658447265625,-0.1021578311920166,-8.201604843139648,5.632824420928955
1773231953696649000,6.28664892578125,-0.312095046043396,-8.414666175842285,5.517963409423828
1773231953712671000,6.3026708984375,-0.3203415870666504,-8.484103202819824,5.157894611358643
1773231953728662300,6.318662353515625,-0.2100515365600586,-8.53240966796875,4.011677265167236
1773231953744652800,6.33465283203125,-0.006707429885864258,-8.496280670166016,2.8826518058776855
1773231953760673500,6.350673583984375,0.30857813358306885,-8.484628677368164,1.8530659675598145
1773231953776666000,6.366666015625,0.5021811723709106,-8.115804672241211,1.2785625457763672
1773231953792658000,6.382657958984375,0.7207061052322388,-7.724926948547363,0.7284374237060547
1773231953808647400,6.3986474609375,0.9367942810058594,-7.077910423278809,0.05148887634277344
1773231953824668700,6.414668701171875,0.9638012051582336,-6.372827529907227,-0.9439496994018555
1773231953840661500,6.43066162109375,0.8014856576919556,-5.740055561065674,-1.9694385528564453
1773231953856653800,6.44665380859375,0.5319108963012695,-5.271994590759277,-2.1039323806762695
1773231953872675000,6.462675048828125,0.35140013694763184,-4.6813812255859375,-1.2381610870361328
1773231953888665900,6.478665771484375,0.5568310618400574,-3.5851521492004395,-0.10861778259277344
1773231953904657700,6.49465771484375,0.4933035969734192,-2.303697109222412,0.5914411544799805
1773231953920678000,6.510677978515625,-0.0980229377746582,-1.2546741962432861,0.8636465072631836
1773231953936668400,6.52666845703125,-0.9339500665664673,-0.4704127311706543,0.7444133758544922
1773231953952660700,6.54266064453125,-1.7216097116470337,-0.004620552062988281,0.5119247436523438
1773231953968651500,6.558651611328125,-2.031219244003296,0.13331174850463867,0.4712486267089844
1773231953984672500,6.574672607421875,-1.6457196474075317,0.06494569778442383,0.4190950393676758
1773231954000664600,6.59066455078125,-0.9931563138961792,0.03751325607299805,0.18135738372802734
1773231954016547000,6.606547119140625,-0.41458213329315186,0.18743038177490234,-0.3326749801635742
1773231954032678700,6.6226787109375,-0.2026960849761963,0.4164090156555176,-1.0516228675842285
1773231954048670500,6.63867041015625,-0.15337443351745605,0.6909050941467285,-1.9247946739196777
1773231954064660500,6.654660400390625,-0.012210369110107422,1.025709629058838,-2.842863082885742
1773231954080651300,6.6706513671875,0.2551177740097046,1.397087574005127,-3.8268489837646484
1773231954096670700,6.686670654296875,0.5663886070251465,1.870363712310791,-4.536977291107178
1773231954112664800,6.702664794921875,0.9498036503791809,2.5975351333618164,-5.260754585266113
1773231954128654300,6.718654296875,1.1135218143463135,3.176375389099121,-6.137020587921143
1773231954144676600,6.734676513671875,1.1657944917678833,3.488753318786621,-7.063960552215576
1773231954160668700,6.750668701171875,1.2738865613937378,3.505589485168457,-8.01844310760498
1773231954176658400,6.766658447265625,1.5382306575775146,3.3911094665527344,-8.806211471557617
1773231954192650000,6.78264990234375,1.8742717504501343,3.623936653137207,-9.09717082977295
1773231954208673300,6.79867333984375,2.0133724212646484,4.077569007873535,-9.386652946472168
1773231954224662000,6.814662109375,1.8274528980255127,3.3630223274230957,-10.623176574707031
1773231954240654000,6.830654052734375,2.014045476913452,2.8550305366516113,-11.948477745056152
1773231954256675000,6.846675048828125,2.648420810699463,3.216188907623291,-12.278055191040039
1773231954272667600,6.862667724609375,2.706399917602539,3.9886536598205566,-11.826112747192383
1773231954288659200,6.8786591796875,1.7592005729675293,4.3614182472229,-11.300948143005371
1773231954304650200,6.894650146484375,0.8446826934814453,3.8061108589172363,-10.874759674072266
1773231954320670500,6.91067041015625,0.7242571115493774,2.5441460609436035,-10.334554672241211
1773231954336661500,6.92666162109375,0.9346101880073547,0.978581428527832,-9.54595947265625
1773231954352653800,6.94265380859375,1.0153424739837646,-0.4820871353149414,-8.914774894714355
1773231954368675600,6.958675537109375,0.938283383846283,-1.6495170593261719,-8.066455841064453
1773231954384666600,6.97466650390625,1.0457589626312256,-1.9513564109802246,-6.965598106384277
1773231954400659000,6.990658935546875,0.9648176431655884,-1.8994693756103516,-5.77704381942749
1773231954416649700,7.006649658203125,0.6094284057617188,-1.9881601333618164,-4.904414653778076
1773231954432671200,7.022671142578125,0.4443100690841675,-2.412383556365967,-3.7506613731384277
1773231954448662500,7.03866259765625,0.40361738204956055,-3.0851144790649414,-2.2704668045043945
1773231954464653800,7.05465380859375,0.6600640416145325,-3.9280028343200684,-0.49422168731689453
1773231954480673500,7.070673583984375,1.300827980041504,-4.530346393585205,0.6643104553222656
1773231954496665000,7.0866650390625,1.4390761852264404,-4.9203596115112305,1.8172593116760254
1773231954512658000,7.102657958984375,1.3678147792816162,-5.171121597290039,2.7682271003723145
1773231954528680000,7.118679931640625,1.3515644073486328,-5.585092544555664,3.557351589202881
1773231954544670500,7.13467041015625,1.3788871765136719,-6.063938140869141,4.100946426391602
1773231954560660200,7.15066015625,1.2593525648117065,-6.183499813079834,4.669256687164307
1773231954576651800,7.16665185546875,1.0075280666351318,-6.31179141998291,5.034097194671631
1773231954592674800,7.1826748046875,0.7493994832038879,-6.397671699523926,5.392014503479004
1773231954608662500,7.19866259765625,0.6209291815757751,-6.524034023284912,5.828133583068848
1773231954624658000,7.214657958984375,0.644450306892395,-6.700858116149902,6.153288841247559
1773231954640648200,7.230648193359375,0.7156427502632141,-7.15647554397583,6.01905632019043
1773231954656669700,7.246669677734375,0.6081047654151917,-7.8022356033325195,5.695415019989014
1773231954672661800,7.262661865234375,0.350735068321228,-8.3468599319458,5.500060558319092
1773231954688652300,7.27865234375,-0.05035412311553955,-8.600422859191895,5.782483100891113
1773231954704672000,7.294672119140625,-0.3677026033401489,-8.732293128967285,6.019896507263184
1773231954720662500,7.31066259765625,-0.2978358268737793,-8.769538879394531,5.748978614807129
1773231954736655000,7.326655029296875,0.10806572437286377,-8.658710479736328,5.126973628997803
1773231954752676900,7.3426767578125,0.6080207824707031,-8.264477729797363,4.155993938446045
1773231954768668200,7.358668212890625,0.9869328141212463,-7.800432205200195,3.0899949073791504
1773231954784660700,7.37466064453125,1.27860426902771,-6.965866565704346,2.2255311012268066
1773231954800650200,7.390650146484375,1.2064095735549927,-6.519755840301514,0.7408065795898438
1773231954816673000,7.406673095703125,0.7752775549888611,-6.062183856964111,-0.4792795181274414
1773231954832664000,7.4226640625,0.3075023889541626,-5.867523193359375,-1.0488481521606445
1773231954848654300,7.438654296875,-0.09697365760803223,-5.8933281898498535,-1.1822700500488281
1773231954864675800,7.45467578125,-0.2749929428100586,-5.698091506958008,-0.9812803268432617
1773231954880668700,7.470668701171875,-0.3776324987411499,-4.998096466064453,-0.5396547317504883
1773231954896659000,7.486658935546875,-0.41424453258514404,-3.6963565349578857,0.2904825210571289
1773231954912650000,7.50264990234375,-0.36337482929229736,-2.115567445755005,0.6510696411132812
1773231954928671000,7.5186708984375,-0.44361042976379395,-0.8087515830993652,0.34967708587646484
1773231954944663600,7.53466357421875,-0.8016798496246338,-0.031301021575927734,0.04292488098144531
1773231954968648200,7.558648193359375,-1.272982120513916,0.16688203811645508,0.24170589447021484
1773231954984670700,7.574670654296875,-1.153833031654358,0.09385442733764648,0.44684791564941406
1773231955000662800,7.590662841796875,-0.9757907390594482,-0.08409833908081055,0.47091245651245117
1773231955016653600,7.606653564453125,-0.8359131813049316,-0.125732421875,0.22672224044799805
1773231955032675000,7.622675048828125,-0.7511539459228516,-0.03131103515625,-0.4162745475769043
1773231955048667000,7.6386669921875,-0.5677808523178101,0.41254281997680664,-1.511030673980713
1773231955064655400,7.6546552734375,-0.3295276165008545,0.7935662269592285,-2.7912750244140625
1773231955080649000,7.67064892578125,-0.07500815391540527,1.3419737815856934,-4.0395121574401855
1773231955096669400,7.68666943359375,0.2214374542236328,1.9643325805664062,-4.977543830871582
1773231955112662500,7.70266259765625,0.3427870273590088,2.662311553955078,-5.508784294128418
1773231955128651300,7.7186513671875,0.29598748683929443,3.168865203857422,-6.290684700012207
1773231955144675000,7.734675048828125,0.22210514545440674,3.436126232147217,-7.536620616912842
1773231955160667000,7.7506669921875,0.4544050693511963,3.602550983428955,-8.630058288574219
1773231955176656600,7.76665673828125,0.9073963165283203,3.6357340812683105,-9.40631103515625
1773231955192649000,7.78264892578125,1.2286092042922974,3.7205257415771484,-9.979751586914062
1773231955208668700,7.798668701171875,1.2426198720932007,4.060706615447998,-10.234245300292969
1773231955224661000,7.814660888671875,0.8646043539047241,3.6066699028015137,-11.374135971069336
1773231955240652500,7.830652587890625,0.713742733001709,3.1249585151672363,-12.521827697753906
1773231955256674300,7.84667431640625,1.1368138790130615,3.551694393157959,-12.886857986450195
1773231955272665900,7.862665771484375,0.9105044603347778,4.326048374176025,-12.647087097167969
1773231955288657000,7.878656982421875,-0.17507600784301758,4.614602565765381,-12.21516227722168
1773231955304648000,7.89464794921875,-0.7247183322906494,4.032726764678955,-11.925349235534668
1773231955320669000,7.9106689453125,-0.42918872833251953,2.752624034881592,-11.46526050567627
1773231955336659500,7.926659423828125,-0.044548749923706055,1.139617919921875,-10.747472763061523
1773231955352650500,7.942650390625,0.4280276298522949,-0.4787449836730957,-9.754915237426758
1773231955368672300,7.95867236328125,0.9048723578453064,-1.7737712860107422,-8.430500030517578
1773231955384664600,7.97466455078125,1.3212019205093384,-2.218433380126953,-6.7187089920043945
1773231955400654300,7.990654296875,1.566872000694275,-2.1258254051208496,-5.061233043670654
1773231955416646000,8.00664599609375,1.5693929195404053,-2.081475257873535,-3.626509189605713
1773231955432668400,8.02266845703125,1.630761742591858,-2.3001294136047363,-2.382800579071045
1773231955448658700,8.03865869140625,1.8128727674484253,-2.7678565979003906,-1.299168586730957
1773231955464650800,8.054650634765625,1.8945472240447998,-3.3921022415161133,-0.4495849609375
1773231955480672800,8.0706728515625,1.682031273841858,-3.902669906616211,0.6142940521240234
1773231955496664300,8.086664306640625,1.513153076171875,-4.1888933181762695,1.6565613746643066
1773231955512654600,8.102654541015625,1.2803609371185303,-4.5933027267456055,2.4245638847351074
1773231955528643800,8.118643798828124,1.1821881532669067,-5.121094226837158,3.0579614639282227
1773231955544668400,8.13466845703125,1.1945884227752686,-5.653071403503418,3.6543331146240234
1773231955560658000,8.150657958984375,1.2969722747802734,-6.007640361785889,4.262214660644531
1773231955576650500,8.166650390625,1.2443796396255493,-6.256495952606201,4.763025760650635
1773231955592672000,8.182672119140625,1.0414626598358154,-6.363975524902344,5.219897747039795
1773231955608660700,8.19866064453125,0.8837231993675232,-6.434780120849609,5.709420680999756
1773231955624654300,8.214654296875,0.7970148324966431,-6.608939170837402,5.933567047119141
1773231955640646000,8.23064599609375,0.7638981938362122,-6.964824676513672,5.967433929443359
1773231955656667600,8.246667724609376,0.7689074277877808,-7.384466648101807,5.989601135253906
1773231955672658000,8.262657958984375,0.7425575852394104,-7.704131603240967,5.951099395751953
1773231955688648200,8.278648193359375,0.5089937448501587,-7.860951900482178,6.06525993347168
1773231955704670700,8.294670654296874,0.23572611808776855,-7.910364627838135,6.217461585998535
1773231955720663000,8.3106630859375,0.3003283739089966,-8.129939079284668,5.754127502441406
1773231955736652500,8.326652587890624,0.7563945055007935,-8.420875549316406,5.13584566116333
1773231955752674800,8.3426748046875,1.127816915512085,-8.257901191711426,4.396664142608643
1773231955768667000,8.3586669921875,0.8887717127799988,-8.065664291381836,3.4571967124938965
1773231955784656100,8.37465625,0.6226106882095337,-7.486666679382324,2.7832841873168945
1773231955800649500,8.3906494140625,0.5048896074295044,-6.707558631896973,1.6162872314453125
1773231955816671000,8.4066708984375,0.37862104177474976,-5.803492546081543,0.12213706970214844
1773231955832660200,8.42266015625,0.1841282844543457,-5.145534992218018,-1.0640544891357422
1773231955848652000,8.438652099609374,-0.14285051822662354,-4.894186496734619,-1.623744010925293
1773231955864674600,8.454674560546875,-0.3848491907119751,-4.82930850982666,-1.4993858337402344
1773231955880664800,8.470664794921875,-0.38654792308807373,-4.58219051361084,-1.0468673706054688
1773231955896654300,8.486654296875,-0.18381649255752563,-3.7591452598571777,-0.384124755859375
1773231955912648400,8.5026484375,-0.020480334758758545,-2.518462896347046,-0.020841598510742188
1773231955928669000,8.5186689453125,0.031109094619750977,-1.23878812789917,-0.34041786193847656
1773231955944660700,8.53466064453125,-0.14982789754867554,-0.33153676986694336,-0.7031593322753906
1773231955960652000,8.550652099609374,-0.3171830177307129,0.17462873458862305,-1.020705223083496
1773231955976640800,8.566640869140626,-0.5819241404533386,0.2422623634338379,-0.9740304946899414
1773231955992665000,8.5826650390625,-0.5401164889335632,0.29079484939575195,-0.6348400115966797
1773231956008654600,8.598654541015625,-0.22173607349395752,0.47505855560302734,-0.5850672721862793
1773231956024646100,8.614646240234375,0.020828843116760254,0.7934446334838867,-0.8470673561096191
1773231956040667100,8.630667236328126,0.13079071044921875,1.1224656105041504,-1.3928885459899902
1773231956056660200,8.64666015625,0.15220904350280762,1.4362993240356445,-2.041942596435547
1773231956072650800,8.662650634765624,0.031987547874450684,1.8443350791931152,-2.5269389152526855
1773231956088641000,8.67864111328125,0.11754441261291504,2.102993965148926,-3.06927490234375
1773231956104663000,8.6946630859375,0.04374849796295166,2.4234042167663574,-3.5802245140075684
1773231956120656100,8.71065625,-0.0982964038848877,2.869814395904541,-4.253986358642578
1773231956136646400,8.726646484375,-0.33637917041778564,3.0551109313964844,-5.152283191680908
1773231956152668000,8.74266796875,-0.5681734085083008,3.1243553161621094,-6.188938140869141
1773231956168657700,8.75865771484375,-0.5715078115463257,3.0427956581115723,-7.422328948974609
1773231956184651000,8.774651123046874,-0.28151392936706543,3.0697383880615234,-8.662111282348633
1773231956200671000,8.7906708984375,0.07112586498260498,3.6515164375305176,-9.411869049072266
1773231956216660500,8.806660400390625,0.14751052856445312,4.46870231628418,-10.061057090759277
1773231956232654600,8.822654541015625,0.13502943515777588,3.9248385429382324,-11.571868896484375
1773231956248646100,8.838646240234375,0.6474156379699707,3.371121406555176,-12.801900863647461
1773231956264668400,8.85466845703125,1.702461838722229,3.537950038909912,-12.937479972839355
1773231956280658000,8.870657958984374,2.2916312217712402,4.185659885406494,-12.04255485534668
1773231956296649700,8.886649658203124,1.7890748977661133,4.612076282501221,-11.359460830688477
1773231956312671200,8.902671142578125,1.1623934507369995,4.293454647064209,-10.954412460327148
1773231956328663000,8.9186630859375,0.940608561038971,3.3303351402282715,-10.606780052185059
1773231956344654600,8.934654541015625,0.9531652927398682,1.755347728729248,-10.009905815124512
1773231956360644900,8.950644775390625,0.9092696309089661,0.17564725875854492,-9.092672348022461
1773231956376665600,8.96666552734375,0.8111792802810669,-1.1656112670898438,-8.227775573730469
1773231956392657700,8.98265771484375,0.8581895232200623,-1.8405084609985352,-7.190581798553467
1773231956408649200,8.998649169921874,1.0054609775543213,-1.9006166458129883,-5.885128021240234
1773231956424671000,9.0146708984375,1.0676262378692627,-1.6831278800964355,-4.740629196166992
1773231956440660700,9.03066064453125,1.1788558959960938,-1.7696852684020996,-3.4040093421936035
1773231956456652000,9.046652099609375,1.5082896947860718,-2.1361069679260254,-2.0533089637756348
1773231956472643000,9.06264306640625,1.8214658498764038,-2.7965292930603027,-0.8857660293579102
1773231956488666000,9.078666015625,1.9849987030029297,-3.5127511024475098,0.2612113952636719
1773231956504657000,9.094656982421874,2.054460287094116,-4.1843647956848145,1.025129795074463
1773231956520649000,9.11064892578125,1.8127979040145874,-4.6864118576049805,1.8869590759277344
1773231956536669000,9.1266689453125,1.4722862243652344,-5.11953067779541,2.6356897354125977
1773231956552660000,9.142659912109375,1.1609954833984375,-5.485562801361084,3.214627265930176
1773231956568651500,9.158651611328125,1.0242557525634766,-5.992134094238281,3.764073371887207
1773231956584643000,9.17464306640625,0.9482811689376831,-6.296802997589111,4.2255096435546875
1773231956600662800,9.190662841796875,0.8526386022567749,-6.5015716552734375,4.595547676086426
1773231956616656400,9.206656494140624,0.7130610346794128,-6.674620628356934,4.903724193572998
1773231956632647400,9.2226474609375,0.47127658128738403,-6.601651191711426,5.398390769958496
1773231956648668400,9.23866845703125,0.2349565029144287,-6.826239109039307,5.57013463973999
1773231956664660000,9.254659912109375,0.20431888103485107,-7.193993091583252,5.630302429199219
1773231956680650000,9.27064990234375,0.15843617916107178,-7.550446510314941,5.780480861663818
1773231956696642300,9.286642333984375,0.08458065986633301,-7.8528523445129395,5.973078727722168
1773231956712663800,9.302663818359376,0.039034485816955566,-7.947900295257568,6.198751449584961
1773231956728656100,9.31865625,0.04888784885406494,-7.890855312347412,6.035103797912598
1773231956744645400,9.334645263671876,0.2342458963394165,-7.985901832580566,5.1828203201293945
1773231956760669000,9.3506689453125,0.5590720176696777,-7.842785358428955,4.627457618713379
1773231956776658400,9.366658447265625,0.5872901082038879,-7.675041198730469,4.066957950592041
1773231956792650800,9.382650634765625,0.5552191734313965,-7.222004413604736,3.384192943572998
1773231956808670000,9.398669921875,0.47827810049057007,-6.739969730377197,2.3289008140563965
1773231956824662500,9.41466259765625,0.25161170959472656,-6.234169006347656,1.1936674118041992
1773231956840654800,9.43065478515625,0.03771781921386719,-5.782980918884277,0.34020042419433594
1773231956856645600,9.446645751953126,-0.18864965438842773,-5.531710624694824,-0.2698497772216797
1773231956872667100,9.462667236328125,-0.32682180404663086,-5.295738220214844,-0.5147686004638672
1773231956888659500,9.478659423828125,-0.310077428817749,-4.950375556945801,-0.3279895782470703
1773231956904650500,9.494650390625,-0.10641098022460938,-4.130441665649414,0.21114826202392578
1773231956920672300,9.51067236328125,0.07942032814025879,-3.0316169261932373,0.6167984008789062
1773231956936663600,9.52666357421875,0.17183524370193481,-1.8415687084197998,0.5795679092407227
1773231956952654600,9.542654541015626,0.03895115852355957,-0.9612517356872559,0.15417194366455078
1773231956968643600,9.5586435546875,-0.2789705991744995,-0.5492677688598633,-0.38930320739746094
1773231956984666000,9.574666015625,-0.5585638284683228,-0.28106260299682617,-0.48914051055908203
1773231957000657200,9.5906572265625,-0.5508604049682617,-0.2637639045715332,-0.6763858795166016
1773231957016649200,9.606649169921875,-0.34220850467681885,-0.2536458969116211,-0.8658571243286133
1773231957032641000,9.62264111328125,-0.27539992332458496,-0.028162479400634766,-1.388267993927002
1773231957048662000,9.638662109375,-0.3053302764892578,0.3836226463317871,-2.2693257331848145
1773231957064652800,9.65465283203125,-0.23058080673217773,0.9211502075195312,-3.1880674362182617
1773231957080645400,9.670645263671876,-0.14706575870513916,1.3912367820739746,-4.028430461883545
1773231957096665900,9.686665771484375,0.01714026927947998,1.8419032096862793,-4.75055456161499
1773231957112658000,9.702657958984375,0.3668336868286133,2.3797149658203125,-5.246315956115723
1773231957128647700,9.718647705078125,0.7452210187911987,2.976851463317871,-5.576087951660156
1773231957144669200,9.734669189453125,0.9658520221710205,3.3112010955810547,-6.128937244415283
1773231957160662000,9.750662109375,1.0904045104980469,3.297755241394043,-6.9239182472229
1773231957176651500,9.766651611328125,1.3830732107162476,3.301851272583008,-7.7846999168396
1773231957192642300,9.782642333984375,1.6845088005065918,3.1974005699157715,-8.499204635620117
1773231957208665000,9.7986650390625,1.8932666778564453,3.400090217590332,-9.016773223876953
1773231957224657400,9.814657470703125,1.8920868635177612,3.495047092437744,-9.824529647827148
1773231957240646700,9.830646728515624,1.5854402780532837,2.832796573638916,-11.529921531677246
1773231957256668700,9.846668701171875,1.8105216026306152,2.8651742935180664,-12.681486129760742
1773231957272661200,9.8626611328125,2.5957460403442383,3.87502384185791,-13.229780197143555
1773231957288652300,9.87865234375,2.61698579788208,5.099353790283203,-13.514134407043457
1773231957304642600,9.894642578125,1.751490592956543,5.485559940338135,-13.983144760131836
1773231957320664800,9.910664794921875,1.270727276802063,4.747335433959961,-13.771055221557617
1773231957336655000,9.926655029296874,1.3517104387283325,3.330744743347168,-12.819887161254883
1773231957352645600,9.942645751953124,1.8951994180679321,1.394768238067627,-11.502300262451172
1773231957368668000,9.95866796875,2.1098620891571045,-0.16125965118408203,-10.17878532409668
1773231957384660000,9.974659912109376,1.779397964477539,-1.0956182479858398,-8.94751262664795
1773231957400650800,9.990650634765625,1.3460978269577026,-1.4117918014526367,-7.950037479400635
1773231957416642000,10.00664208984375,0.836432695388794,-1.5433659553527832,-7.1400041580200195
1773231957432663000,10.0226630859375,0.22695815563201904,-1.8219714164733887,-6.238184452056885
1773231957448654600,10.038654541015624,0.2791484594345093,-2.5430498123168945,-4.984865665435791
1773231957464644400,10.054644287109374,0.5164046287536621,-3.388336658477783,-2.663374900817871
1773231957480668200,10.070668212890626,1.3355300426483154,-4.275253772735596,-0.854820728302002
1773231957496656400,10.086656494140625,1.7192497253417969,-4.984585762023926,0.3601822853088379
1773231957512650500,10.102650390625,1.732912302017212,-5.278144359588623,1.6166281700134277
1773231957528672000,10.118672119140625,1.6714975833892822,-5.431650161743164,2.6604418754577637
1773231957544661800,10.134661865234374,1.2352088689804077,-5.579911231994629,3.3752546310424805
1773231957560654300,10.150654296875,0.8612114191055298,-5.837249279022217,3.782707691192627
1773231957576643800,10.166643798828124,0.712019145488739,-6.060901165008545,4.345089912414551
1773231957592667000,10.1826669921875,0.6645808219909668,-6.271116256713867,4.895696640014648
1773231957608657700,10.19865771484375,0.7614561915397644,-6.462325096130371,5.373952865600586
1773231957624650200,10.214650146484376,0.7764565944671631,-6.601358413696289,5.924996376037598
1773231957640640800,10.230640869140625,0.6990023255348206,-6.79554557800293,6.28860330581665
1773231957656662800,10.246662841796875,0.5766745805740356,-7.059330463409424,6.436796188354492
1773231957672653000,10.262653076171874,0.46259891986846924,-7.409337043762207,6.646462440490723
1773231957688645400,10.278645263671875,0.388827919960022,-7.754970550537109,6.710773944854736
1773231957704666000,10.294666015625,0.20412981510162354,-8.045403480529785,6.494275093078613
1773231957720656000,10.31065576171875,-0.1286792755126953,-7.960550308227539,5.990456581115723
1773231957736646100,10.326646240234375,-0.11118924617767334,-8.028882026672363,5.293056964874268
1773231957752640000,10.342639892578125,0.273295521736145,-8.263748168945312,4.606448173522949
1773231957768661200,10.3586611328125,0.6071802973747253,-8.244131088256836,4.178652763366699
1773231957784652000,10.374652099609374,0.5494977235794067,-8.236734390258789,3.4552674293518066
1773231957800644600,10.39064453125,0.38579076528549194,-7.719902038574219,2.8612008094787598
1773231957816665300,10.406665283203125,0.26619279384613037,-7.078882217407227,1.8030815124511719
1773231957832656400,10.422656494140625,0.33721494674682617,-6.247105598449707,0.7488155364990234
1773231957848647000,10.43864697265625,0.5932307243347168,-5.5930633544921875,-0.3250541687011719
1773231957864638000,10.454637939453125,0.6744967699050903,-5.093935966491699,-1.038661003112793
1773231957880659700,10.47065966796875,0.5155742168426514,-4.78873348236084,-1.130904197692871
1773231957896650500,10.486650390625,0.2842448949813843,-4.308392524719238,-0.6903848648071289
1773231957912641500,10.5026416015625,0.07192909717559814,-3.4193811416625977,-0.06299495697021484
1773231957928665300,10.518665283203125,-0.016210436820983887,-2.3694205284118652,0.3949880599975586
1773231957944656000,10.53465576171875,-0.12899553775787354,-1.3345398902893066,0.16244888305664062
1773231957960646100,10.550646240234375,-0.3120717406272888,-0.5122098922729492,-0.5132904052734375
1773231957976636000,10.566635986328125,-0.580517590045929,-0.04192495346069336,-1.1175613403320312
1773231957992660200,10.58266015625,-1.021817922592163,0.15188121795654297,-1.4487104415893555
1773231958008651300,10.5986513671875,-1.0253779888153076,0.30340003967285156,-1.3749938011169434
1773231958024641800,10.614641845703124,-0.5240229368209839,0.4780416488647461,-1.535365104675293
1773231958040664300,10.630664306640625,-0.12793755531311035,0.6314072608947754,-2.2770228385925293
1773231958056654300,10.646654296875,0.08888435363769531,0.9588351249694824,-3.3411617279052734
1773231958072646400,10.662646484375,0.13649845123291016,1.5040345191955566,-4.204338550567627
1773231958088668000,10.67866796875,0.026391148567199707,2.0956387519836426,-4.916769981384277
1773231958104659200,10.6946591796875,0.09838378429412842,2.6310276985168457,-5.5218048095703125
1773231958120648700,10.710648681640626,0.2904142141342163,3.2085928916931152,-5.997804164886475
1773231958136639200,10.72663916015625,0.4391533136367798,3.555994987487793,-6.493589401245117
1773231958152663600,10.74266357421875,0.6471142768859863,3.6744046211242676,-7.008285045623779
1773231958168653600,10.758653564453125,0.9617831707000732,3.646566390991211,-7.732812881469727
1773231958184643000,10.77464306640625,1.3352853059768677,3.663271903991699,-8.513253211975098
1773231958200668000,10.79066796875,1.6853666305541992,3.836458206176758,-9.089269638061523
1773231958216657700,10.80665771484375,1.7857846021652222,4.374319553375244,-9.335206031799316
1773231958232648700,10.822648681640626,1.6661919355392456,4.270673751831055,-10.052011489868164
1773231958248638500,10.838638427734375,1.6147289276123047,3.361525058746338,-11.556819915771484
1773231958264662500,10.85466259765625,2.0354268550872803,3.2303905487060547,-12.364509582519531
1773231958280652500,10.870652587890625,2.4762048721313477,3.8870902061462402,-12.734270095825195
1773231958296645000,10.88664501953125,2.0448312759399414,4.68516731262207,-13.129483222961426
1773231958312665000,10.9026650390625,1.292266845703125,4.848875522613525,-13.193083763122559
1773231958328656400,10.918656494140626,1.2056816816329956,4.0083231925964355,-12.794363021850586
1773231958344647700,10.934647705078126,1.465564250946045,2.3660473823547363,-11.982460021972656
1773231958360640800,10.950640869140624,2.019307851791382,0.5625123977661133,-10.763290405273438
1773231958376659500,10.966659423828125,2.425784111022949,-0.8385829925537109,-9.498573303222656
1773231958392652300,10.98265234375,2.5099542140960693,-1.4974846839904785,-8.029314041137695
1773231958408644600,10.99864453125,2.414155960083008,-1.471017837524414,-6.495932579040527
1773231958424665300,11.014665283203126,2.06514310836792,-1.3596105575561523,-5.224679470062256
1773231958440656000,11.03065576171875,1.9808038473129272,-1.488530158996582,-3.914508819580078
1773231958456645400,11.046645263671875,2.0887491703033447,-1.811326503753662,-2.6451287269592285
1773231958472670200,11.062670166015625,2.1556899547576904,-2.323500633239746,-1.363846778869629
1773231958488661200,11.0786611328125,2.1016435623168945,-2.806741714477539,-0.1233673095703125
1773231958504651300,11.0946513671875,1.9598841667175293,-3.235018253326416,1.0932164192199707
1773231958520642800,11.110642822265625,1.7957805395126343,-3.612738609313965,1.9157485961914062
1773231958536662800,11.126662841796875,1.5874555110931396,-3.993448257446289,2.451969623565674
1773231958552655600,11.142655517578126,1.2783461809158325,-4.25058650970459,2.9196977615356445
1773231958568646100,11.158646240234376,0.9893696308135986,-4.566841125488281,3.237330436706543
1773231958584668200,11.174668212890625,0.8229942917823792,-4.981194019317627,3.647298812866211
1773231958600658700,11.19065869140625,0.7211490273475647,-5.495519638061523,3.981912612915039
1773231958616649000,11.20664892578125,0.669208288192749,-5.852972030639648,4.41555118560791
1773231958632643000,11.22264306640625,0.5817705392837524,-6.189249515533447,4.866296291351318
1773231958648663800,11.238663818359376,0.5292466878890991,-6.44900369644165,5.162246227264404
1773231958664653800,11.25465380859375,0.340195894241333,-6.763082027435303,5.197971820831299
1773231958680645400,11.270645263671875,0.24290382862091064,-7.153562068939209,5.162397384643555
1773231958696635600,11.2866357421875,0.3287777900695801,-7.429778099060059,5.1322808265686035
1773231958712659500,11.302659423828125,0.6828639507293701,-7.470530033111572,5.268299102783203
1773231958728649200,11.318649169921875,1.350082278251648,-7.393805027008057,5.427170753479004
1773231958744641500,11.3346416015625,1.8754868507385254,-7.451469421386719,4.8107757568359375
1773231958760663300,11.350663330078126,1.9743746519088745,-7.417613506317139,4.098778247833252
1773231958776653800,11.36665380859375,1.7414746284484863,-6.963888168334961,3.7561769485473633
1773231958792647000,11.38264697265625,1.1866611242294312,-6.426305770874023,3.3548097610473633
1773231958808666400,11.398666259765625,0.937563955783844,-5.698551654815674,2.8744354248046875
1773231958824657400,11.414657470703125,0.8903750777244568,-5.223292350769043,1.8898978233337402
1773231958840650800,11.430650634765625,0.83042311668396,-4.804581642150879,1.0020933151245117
1773231958856638700,11.446638671875,0.6390963792800903,-4.608109474182129,0.14930152893066406
1773231958872662300,11.462662353515626,0.28328144550323486,-4.675465106964111,-0.4471445083618164
1773231958888654300,11.478654296875,-0.15723228454589844,-4.617806434631348,-0.4830770492553711
1773231958904645400,11.494645263671876,-0.38878393173217773,-4.0215301513671875,0.1628704071044922
1773231958920635100,11.51063525390625,-0.29714488983154297,-2.875128984451294,0.7983160018920898
1773231958936658400,11.526658447265625,-0.07805156707763672,-1.5868473052978516,0.8125486373901367
1773231958952649000,11.54264892578125,-0.08785498142242432,-0.4637775421142578,0.34200477600097656
1773231958968638000,11.558637939453124,-0.32397520542144775,0.24068069458007812,-0.14063262939453125
1773231958984662000,11.574662109375,-0.8478682041168213,0.6092181205749512,-0.6125621795654297
1773231959000651500,11.590651611328125,-1.1558091640472412,0.8081812858581543,-0.6170415878295898
1773231959016644000,11.60664404296875,-1.1679751873016357,0.7957143783569336,-0.5653071403503418
1773231959032665600,11.62266552734375,-1.094773769378662,0.9074192047119141,-0.5600161552429199
1773231959048731600,11.638731689453126,-1.102384090423584,1.0078425407409668,-1.0992217063903809
1773231959064722400,11.654722412109376,-0.9953526258468628,1.1529617309570312,-1.87839937210083
1773231959080713000,11.670712890625,-0.7048821449279785,1.575418472290039,-2.899662971496582
1773231959096736300,11.686736328125,-0.49018585681915283,2.0204405784606934,-3.8621177673339844
1773231959112725800,11.702725830078125,-0.32577431201934814,2.5178279876708984,-4.579567909240723
1773231959128717800,11.7187177734375,-0.30809712409973145,2.908332347869873,-5.345089912414551
1773231959144739000,11.734739013671875,-0.39175188541412354,3.188068389892578,-6.211762428283691
1773231959160729900,11.750729736328125,-0.3499342203140259,3.2072486877441406,-7.18266487121582
1773231959176722400,11.766722412109376,-0.05510282516479492,3.1658143997192383,-8.279302597045898
1773231959192713000,11.782712890625,0.26526546478271484,3.342651844024658,-9.437883377075195
1773231959208734200,11.798734130859375,0.4516352415084839,3.84719181060791,-10.35765552520752
1773231959224725800,11.814725830078125,0.43152034282684326,4.552949905395508,-10.843242645263672
1773231959240717800,11.8307177734375,0.2856569290161133,4.460788249969482,-11.874210357666016
1773231959256736500,11.846736572265625,0.5877794027328491,3.7219810485839844,-12.937841415405273
1773231959272729300,11.862729248046875,1.6071934700012207,3.6430234909057617,-13.295320510864258
1773231959288721200,11.87872119140625,2.286576271057129,4.401255130767822,-12.897822380065918
1773231959304712400,11.89471240234375,1.871878743171692,5.497350692749023,-12.313426971435547
1773231959320733400,11.9107333984375,1.0616101026535034,5.667422294616699,-12.004829406738281
1773231959336726300,11.926726318359375,0.8246332406997681,4.855956077575684,-11.549171447753906
1773231959352717300,11.94271728515625,1.0815932750701904,3.2186875343322754,-10.905119895935059
1773231959368737800,11.95873779296875,1.3796426057815552,1.437631607055664,-9.800697326660156
1773231959384728000,11.97472802734375,1.4015440940856934,-0.13212108612060547,-8.825860977172852
1773231959400720000,11.990719970703125,1.3670034408569336,-0.8817214965820312,-7.823968887329102
1773231959416711400,12.00671142578125,1.3629958629608154,-0.8172273635864258,-6.8049092292785645
1773231959432734000,12.02273388671875,1.0950884819030762,-0.5287923812866211,-5.973095893859863
1773231959448725000,12.03872509765625,0.6711872220039368,-0.5041313171386719,-4.958010196685791
1773231959464715500,12.054715576171875,0.7861683964729309,-0.7470579147338867,-3.668421745300293
1773231959480738600,12.070738525390626,1.0248651504516602,-1.3982009887695312,-2.5484867095947266
1773231959496729900,12.086729736328126,1.4736171960830688,-2.232692241668701,-1.6598320007324219
1773231959512720400,12.102720458984376,1.7484451532363892,-2.961991310119629,-0.7072114944458008
1773231959528712000,12.1187119140625,1.7211881875991821,-3.508105754852295,0.10582828521728516
1773231959544732200,12.134732177734374,1.556557059288025,-4.120777606964111,0.7164530754089355
1773231959560724200,12.15072412109375,1.427000641822815,-4.831062316894531,1.5535802841186523
1773231959576717000,12.166717041015625,1.5467439889907837,-5.488862037658691,2.5275211334228516
1773231959592737800,12.18273779296875,1.6699782609939575,-5.91046142578125,3.3602242469787598
1773231959608728800,12.198728759765626,1.6811108589172363,-6.124263763427734,4.221403121948242
1773231959624719400,12.21471923828125,1.5771442651748657,-6.159524440765381,4.961153030395508
1773231959640739800,12.23073974609375,1.3961366415023804,-6.061503887176514,5.378073215484619
1773231959656733200,12.246733154296875,1.0756537914276123,-6.127531051635742,5.688770294189453
1773231959672725000,12.26272509765625,0.9965085983276367,-6.393824100494385,5.928271293640137
1773231959688714200,12.27871435546875,1.1101341247558594,-6.784837245941162,6.3946428298950195
1773231959704736300,12.294736328125,1.2647325992584229,-7.1425275802612305,6.719324588775635
1773231959720729300,12.310729248046876,1.3103837966918945,-7.328275203704834,6.919294357299805
1773231959736720000,12.326719970703126,1.4721763134002686,-7.394853115081787,6.7128190994262695
1773231959752741600,12.34274169921875,1.4785020351409912,-7.487805366516113,5.876128196716309
1773231959768732200,12.358732177734375,1.1323072910308838,-7.395440578460693,5.1236701011657715
1773231959784722200,12.37472216796875,0.801788330078125,-7.165175437927246,4.283975124359131
1773231959800712700,12.390712646484374,0.5241849422454834,-6.518152236938477,3.2527599334716797
1773231959816737300,12.4067373046875,0.3043520450592041,-5.776714324951172,1.7809152603149414
1773231959832727800,12.422727783203126,-0.10710489749908447,-5.182950973510742,0.1258096694946289
1773231959848719400,12.43871923828125,-0.5626323223114014,-4.846004486083984,-0.9231367111206055
1773231959864741000,12.4547412109375,-0.9176229238510132,-4.742694854736328,-1.3957395553588867
1773231959880732400,12.470732421875,-1.1458193063735962,-4.780031204223633,-1.4003925323486328
1773231959896723700,12.4867236328125,-0.8825106620788574,-4.594331741333008,-0.9069728851318359
1773231959912715500,12.502715576171875,-0.1494053602218628,-3.745816230773926,-0.016271591186523438
1773231959928735200,12.5187353515625,0.46707797050476074,-2.23307466506958,0.20460224151611328
1773231959944727800,12.534727783203126,0.6504586338996887,-0.6837153434753418,-0.18439102172851562
1773231959960719400,12.55071923828125,0.51423180103302,0.5447769165039062,-0.54083251953125
1773231959976739600,12.566739501953125,0.011844873428344727,1.2561354637145996,-0.9541845321655273
1773231959992731000,12.58273095703125,-0.6503819227218628,1.0965466499328613,-0.8683080673217773
1773231960008721700,12.5987216796875,-0.92144775390625,0.6934723854064941,-0.6885204315185547
1773231960024713200,12.614713134765625,-0.8531233072280884,0.6162614822387695,-0.7253551483154297
1773231960040735700,12.63073583984375,-0.9490314722061157,0.6970429420471191,-1.3453598022460938
1773231960056727000,12.64672705078125,-0.8482277393341064,0.9120492935180664,-1.9875564575195312
1773231960072718600,12.662718505859376,-0.30593395233154297,0.9446210861206055,-2.4793972969055176
1773231960088740000,12.678739990234375,0.5407623052597046,1.0747580528259277,-3.0833163261413574
1773231960104743400,12.694743408203125,1.309291958808899,1.3412227630615234,-3.407254695892334
1773231960120720100,12.71072021484375,1.8428581953048706,1.6972475051879883,-3.8469839096069336
1773231960136712400,12.72671240234375,2.1722004413604736,2.1880550384521484,-4.569474697113037
1773231960152735000,12.74273486328125,2.300528049468994,2.457202434539795,-5.3900628089904785
1773231960168723700,12.7587236328125,2.316657304763794,2.4791717529296875,-5.98411750793457
1773231960184717600,12.774717529296876,2.527371406555176,2.417734146118164,-6.515540599822998
1773231960200740400,12.790740234375,2.7288386821746826,2.5152549743652344,-7.380277156829834
1773231960216728600,12.806728515625,2.826108455657959,2.9193506240844727,-8.098180770874023
1773231960232722000,12.822721923828125,2.9116597175598145,3.5967516899108887,-8.719118118286133
1773231960248712000,12.8387119140625,2.463374614715576,3.3828649520874023,-10.214195251464844
1773231960264734700,12.854734619140626,1.994537115097046,2.777273654937744,-12.177127838134766
1773231960280725800,12.870725830078126,2.377804756164551,3.4854583740234375,-13.455427169799805
1773231960296716300,12.88671630859375,2.2067573070526123,5.213240623474121,-14.122618675231934
1773231960312739600,12.902739501953125,0.8382166624069214,6.669768333435059,-14.88664436340332
1773231960328730600,12.918730712890625,-0.03641104698181152,6.672769546508789,-15.618698120117188
1773231960344721700,12.9347216796875,0.4694756269454956,5.404029846191406,-14.697551727294922
1773231960360710400,12.95071044921875,1.8695271015167236,3.2897911071777344,-12.61076545715332
1773231960376732700,12.966732666015625,2.910768747329712,1.128570556640625,-10.444546699523926
1773231960392725200,12.982725341796876,3.2906579971313477,-0.2663688659667969,-8.687247276306152
1773231960408716000,12.998716064453125,3.2712831497192383,-0.7474393844604492,-7.320502758026123
1773231960424738600,13.014738525390625,3.048457145690918,-0.5029287338256836,-6.4378252029418945
1773231960440728300,13.030728271484374,2.435081720352173,-0.06793546676635742,-5.835824489593506
1773231960456718800,13.04671875,1.7285771369934082,-0.022653579711914062,-4.866262912750244
1773231960472712700,13.062712646484375,1.613788366317749,-0.39240407943725586,-3.5055503845214844
1773231960488732200,13.078732177734375,1.73371422290802,-1.225052833557129,-2.2843823432922363
1773231960504725500,13.0947255859375,2.003235101699829,-1.9317293167114258,-0.6047530174255371
1773231960520714800,13.11071484375,2.3837456703186035,-2.4322876930236816,0.44529104232788086
1773231960536738300,13.12673828125,2.263920545578003,-2.8140969276428223,1.1866888999938965
1773231960552729300,13.142729248046875,2.066603183746338,-3.149874210357666,1.8389887809753418
1773231960568720600,13.158720703125,2.018667459487915,-3.689973831176758,2.1866955757141113
1773231960584710100,13.174710205078124,1.9090253114700317,-4.119842052459717,2.7926793098449707
1773231960600732200,13.190732177734375,1.9099212884902954,-4.5341010093688965,3.2489919662475586
1773231960616722400,13.206722412109375,1.8741872310638428,-4.808575630187988,3.6680541038513184
1773231960632715000,13.222715087890625,1.6999691724777222,-5.003242492675781,4.05192756652832
1773231960648738000,13.238738037109375,1.5589473247528076,-5.1411848068237305,4.246880531311035
1773231960664728800,13.254728759765625,1.3665988445281982,-5.5099945068359375,4.001585960388184
1773231960680718300,13.27071826171875,1.2666077613830566,-5.937661647796631,3.7647690773010254
1773231960696742000,13.286741943359376,1.1836800575256348,-6.348833084106445,3.675283432006836
1773231960712733200,13.302733154296876,0.8912256956100464,-6.602822780609131,3.4044833183288574
1773231960728722700,13.31872265625,0.49556124210357666,-6.663352966308594,3.544198513031006
1773231960744714000,13.3347138671875,0.48191821575164795,-6.739399433135986,3.730264186859131
1773231960760735700,13.35073583984375,0.7832378149032593,-6.881045341491699,3.488450050354004
1773231960776728300,13.366728271484375,1.01166832447052,-6.868200302124023,3.164280891418457
1773231960792718300,13.38271826171875,1.068727970123291,-6.535906791687012,2.885756492614746
1773231960808740900,13.398740966796876,1.1203559637069702,-6.071675777435303,3.118309497833252
1773231960824732000,13.41473193359375,1.1869122982025146,-5.239178657531738,3.264094829559326
1773231960840724000,13.430723876953126,0.9887036085128784,-4.354947090148926,2.335958480834961
1773231960856714000,13.4467138671875,0.615787148475647,-3.665130853652954,1.3239660263061523
1773231960872735700,13.46273583984375,0.6782549619674683,-3.279146909713745,0.5915470123291016
1773231960888727300,13.478727294921875,0.5468829870223999,-3.1501832008361816,0.2230062484741211
1773231960904719400,13.49471923828125,0.2346813678741455,-3.1793301105499268,0.3311481475830078
1773231960920711000,13.5107109375,-0.050084710121154785,-3.041182041168213,0.9693565368652344
1773231960936730600,13.526730712890625,-0.18657827377319336,-2.3469290733337402,1.7290067672729492
1773231960952723500,13.542723388671876,-0.1657865047454834,-1.1941823959350586,2.1483731269836426
1773231960968715000,13.558715087890626,-0.13301169872283936,-0.03742218017578125,1.7738895416259766
1773231960984735700,13.57473583984375,-0.4932591915130615,0.6237373352050781,0.9960870742797852
1773231961000725800,13.590725830078124,-0.9589625597000122,1.0396842956542969,0.1201934814453125
1773231961016718600,13.606718505859375,-1.1846758127212524,1.041161060333252,-0.24447107315063477
1773231961032740600,13.62274072265625,-1.070010781288147,0.840179443359375,-0.019978046417236328
1773231961048730400,13.63873046875,-0.581384539604187,0.8693499565124512,0.06948471069335938
1773231961064722000,13.654721923828125,-0.22891545295715332,0.9592595100402832,-0.9866271018981934
1773231961080714500,13.670714599609376,0.0945894718170166,1.3309383392333984,-2.677734375
1773231961096734200,13.686734130859374,0.1720428466796875,1.6764836311340332,-3.921886920928955
1773231961112725000,13.70272509765625,0.21291208267211914,2.0002493858337402,-4.668195724487305
1773231961128718000,13.718718017578125,0.3664381504058838,2.4895548820495605,-5.167275905609131
1773231961144739800,13.73473974609375,0.7117291688919067,3.0793046951293945,-5.774761199951172
1773231961160729600,13.7507294921875,1.1154565811157227,3.7318224906921387,-6.756978988647461
1773231961176719600,13.7667197265625,1.3076491355895996,4.057878494262695,-7.648281574249268
1773231961192713200,13.782713134765626,1.4790418148040771,4.119587421417236,-8.464714050292969
1773231961208735200,13.7987353515625,1.8472814559936523,4.180883884429932,-9.116230964660645
1773231961224726800,13.814726806640625,2.073378801345825,4.55211877822876,-9.867668151855469
1773231961240714800,13.83071484375,2.041037082672119,5.133141994476318,-10.519845962524414
1773231961256738000,13.846738037109375,2.0044496059417725,4.828413009643555,-11.646289825439453
1773231961272731000,13.86273095703125,2.3815882205963135,3.932589530944824,-13.10838508605957
1773231961288721200,13.87872119140625,3.2852725982666016,4.085798263549805,-13.610267639160156
1773231961304713500,13.89471337890625,3.70283579826355,5.220647811889648,-13.366984367370605
1773231961320733400,13.9107333984375,3.2280216217041016,6.06052303314209,-13.418375968933105
1773231961336725000,13.92672509765625,2.805696964263916,6.074347496032715,-13.753286361694336
1773231961352717300,13.94271728515625,2.7850265502929688,5.189155578613281,-13.569939613342285
1773231961368739600,13.958739501953126,2.776578426361084,3.6968417167663574,-12.2695894241333
1773231961384728800,13.974728759765625,2.7452480792999268,2.2423086166381836,-10.392959594726562
1773231961400721200,13.99072119140625,2.7130184173583984,1.193063735961914,-8.802694320678711
1773231961416710100,14.006710205078125,2.5234756469726562,0.7560586929321289,-7.811811923980713
1773231961432734200,14.022734130859375,2.1454761028289795,0.7494745254516602,-7.151917934417725
1773231961448723500,14.038723388671874,1.68352472782135,0.8492674827575684,-6.142794132232666
1773231961464715800,14.0547158203125,1.2756071090698242,0.7973742485046387,-4.983952045440674
1773231961480737300,14.0707373046875,1.055037260055542,0.36654186248779297,-4.062431335449219
1773231961496728300,14.086728271484375,0.9817232489585876,-0.34453582763671875,-2.965254783630371
1773231961512720100,14.10272021484375,1.3531591892242432,-1.1431703567504883,-1.8973159790039062
1773231961528711000,14.1187109375,1.6746362447738647,-1.9875998497009277,-0.9487662315368652
1773231961544732400,14.134732421875,1.7134724855422974,-2.6347556114196777,-0.17972469329833984
1773231961560724200,14.15072412109375,1.6588473320007324,-3.154202938079834,0.5229682922363281
1773231961576714800,14.16671484375,1.51604163646698,-3.6723508834838867,1.1450214385986328
1773231961592738000,14.182738037109376,1.3889381885528564,-4.263121128082275,1.5539288520812988
1773231961608727300,14.198727294921875,1.2532029151916504,-4.805693626403809,2.0792808532714844
1773231961624720000,14.214719970703126,1.0999799966812134,-4.988389492034912,2.69887638092041
1773231961640743000,14.230742919921875,0.5480327606201172,-5.1649885177612305,3.187922477722168
1773231961656732000,14.24673193359375,0.08248066902160645,-5.268036842346191,4.060826778411865
1773231961672724200,14.26272412109375,-0.2814875841140747,-5.543768882751465,4.764536380767822
1773231961688715500,14.278715576171875,-0.40936028957366943,-6.019916534423828,5.099328994750977
1773231961704737300,14.2947373046875,-0.32457828521728516,-6.539554119110107,5.321475028991699
1773231961720727300,14.310727294921875,-0.2896738052368164,-6.814829349517822,5.6459736824035645
1773231961736717600,14.326717529296875,-0.25762975215911865,-6.94304895401001,6.091682434082031
1773231961752741400,14.342741455078125,0.044294118881225586,-7.284918785095215,6.1369452476501465
1773231961768731400,14.3587314453125,0.7137596607208252,-7.669994354248047,5.689215660095215
1773231961784723700,14.3747236328125,1.5373187065124512,-7.618906021118164,5.12252950668335
1773231961800714200,14.39071435546875,2.3030314445495605,-7.495054244995117,4.230325698852539
1773231961816736000,14.406736083984375,2.882791519165039,-6.681430816650391,3.40399169921875
1773231961832727800,14.422727783203126,3.0922441482543945,-5.686810493469238,2.1127071380615234
1773231961848717300,14.43871728515625,3.1533827781677246,-4.630688190460205,0.7485589981079102
1773231961864741400,14.454741455078125,3.1259775161743164,-3.9802329540252686,-0.6881608963012695
1773231961880732200,14.470732177734375,2.858219861984253,-3.798322916030884,-1.4448165893554688
1773231961896722400,14.486722412109375,2.253923177719116,-3.759941339492798,-1.1304607391357422
1773231961912714800,14.50271484375,1.844861626625061,-3.3110361099243164,-0.46998119354248047
1773231961928735500,14.518735595703125,1.4950952529907227,-2.3262252807617188,0.1466531753540039
1773231961944725500,14.5347255859375,0.8071997761726379,-1.0924153327941895,0.32735538482666016
1773231961960718800,14.55071875,-0.12824594974517822,0.022821903228759766,-0.060723304748535156
1773231961976739600,14.566739501953125,-1.082374095916748,0.664391040802002,-0.6091952323913574
1773231961992731400,14.5827314453125,-1.5107883214950562,0.9594321250915527,-1.0091032981872559
1773231962008720400,14.598720458984374,-1.436110019683838,0.8928399085998535,-1.3866081237792969
1773231962024712700,14.614712646484374,-0.9553302526473999,0.8249411582946777,-1.6362719535827637
1773231962040736000,14.630736083984376,-0.2871983051300049,1.0625767707824707,-2.0510449409484863
1773231962056726800,14.646726806640626,0.04383265972137451,1.4012465476989746,-2.907825469970703
1773231962072718000,14.662718017578126,-0.009568572044372559,1.7619032859802246,-3.9180822372436523
1773231962088738800,14.67873876953125,0.15415775775909424,2.2059130668640137,-4.8101654052734375
1773231962104731000,14.69473095703125,0.28550708293914795,2.727271556854248,-5.686037063598633
1773231962120723000,14.710722900390625,0.42500996589660645,3.1130223274230957,-6.419071674346924
1773231962136712700,14.726712646484375,0.5450569987297058,3.7407612800598145,-7.056698322296143
1773231962152735000,14.74273486328125,0.4719911813735962,4.529975891113281,-7.882138729095459
1773231962168725000,14.75872509765625,0.2618582248687744,4.911008358001709,-9.19801139831543
1773231962184717600,14.774717529296876,0.3095341920852661,5.089715003967285,-10.565542221069336
1773231962200739000,14.790739013671875,0.55539870262146,5.166714668273926,-11.972139358520508
1773231962216729600,14.8067294921875,0.7544423937797546,5.321479320526123,-12.956607818603516
1773231962232721700,14.8227216796875,0.7648276686668396,5.847078800201416,-13.0579195022583
1773231962248712700,14.838712646484375,0.7409680485725403,5.8302226066589355,-13.637734413146973
1773231962264733700,14.854733642578125,0.9717279076576233,4.853384494781494,-14.795658111572266
1773231962280725800,14.870725830078126,1.4282680749893188,4.667542457580566,-14.811959266662598
1773231962296717000,14.886717041015626,0.9227683544158936,5.223909854888916,-13.972596168518066
1773231962312738800,14.90273876953125,-0.30474162101745605,5.658147811889648,-13.27336311340332
1773231962328730400,14.91873046875,-0.8799847364425659,5.469754219055176,-12.45015811920166
1773231962344722000,14.934721923828125,-0.558753252029419,4.562370300292969,-11.754141807556152
1773231962360710100,14.950710205078124,-0.15505409240722656,2.887648105621338,-11.263565063476562
1773231962376733400,14.9667333984375,0.20946753025054932,1.2218017578125,-10.738988876342773
1773231962392724500,14.982724365234375,0.7291151285171509,-0.029639244079589844,-10.043692588806152
1773231962408716500,14.998716552734376,1.1097838878631592,-0.6044273376464844,-9.304821014404297
1773231962424738600,15.014738525390625,1.169602870941162,-0.7533531188964844,-8.344051361083984
1773231962440728800,15.030728759765625,1.0055241584777832,-0.6230807304382324,-7.492944240570068
1773231962456720100,15.04672021484375,1.0214040279388428,-0.7969136238098145,-6.129397869110107
1773231962472713000,15.062712890625,1.1730726957321167,-1.2266526222229004,-4.443378925323486
1773231962488735000,15.07873486328125,1.4434118270874023,-1.763658046722412,-3.0264534950256348
1773231962504724000,15.094723876953125,1.834883689880371,-2.3435444831848145,-2.0767178535461426
1773231962520717000,15.110717041015626,1.9972556829452515,-2.962981700897217,-1.191568374633789
1773231962536738600,15.126738525390625,1.9489586353302002,-3.4980878829956055,0.06721019744873047
1773231962552729900,15.142729736328125,1.9258848428726196,-3.9955434799194336,1.1120352745056152
1773231962568718600,15.158718505859374,1.844508409500122,-4.527830123901367,1.7316298484802246
1773231962584742000,15.174741943359376,1.7946550846099854,-4.80340576171875,2.5715560913085938
1773231962600732000,15.19073193359375,1.9211351871490479,-5.027261734008789,3.4551186561584473
1773231962616723500,15.206723388671875,2.1021106243133545,-5.246813774108887,4.131157875061035
1773231962632716300,15.22271630859375,2.090792655944824,-5.090222358703613,4.844663619995117
1773231962648738000,15.238738037109375,1.8594105243682861,-5.094115734100342,5.329707145690918
1773231962664727600,15.2547275390625,1.627378225326538,-5.2296600341796875,5.877366065979004
1773231962680720000,15.270719970703125,1.5337343215942383,-5.6044464111328125,6.040144920349121
1773231962696712000,15.2867119140625,1.4094915390014648,-6.012351036071777,6.171513557434082
1773231962712733400,15.3027333984375,1.2275418043136597,-6.420523643493652,6.1345367431640625
1773231962728724200,15.31872412109375,1.1064459085464478,-6.621148109436035,6.441448211669922
1773231962744714000,15.3347138671875,0.9871463775634766,-6.727243900299072,6.598094463348389
1773231962760735500,15.350735595703124,1.022719383239746,-6.942572593688965,6.250854015350342
1773231962776726800,15.366726806640624,1.2148886919021606,-6.940325736999512,5.505537509918213
1773231962792719000,15.382718994140625,1.3055777549743652,-6.656430244445801,4.538334846496582
1773231962808738300,15.39873828125,1.2862167358398438,-6.405419826507568,3.6645641326904297
1773231962824731400,15.4147314453125,1.2774035930633545,-5.768450736999512,2.778749942779541
1773231962840724000,15.430723876953126,1.0399104356765747,-5.2254638671875,1.378504753112793
1773231962856714200,15.44671435546875,0.5130988359451294,-4.882206916809082,0.07208919525146484
1773231962872736500,15.462736572265625,-0.024338245391845703,-4.684576988220215,-0.9473237991333008
1773231962888726800,15.478726806640625,-0.38453710079193115,-4.750274181365967,-1.5611724853515625
1773231962904718600,15.494718505859375,-0.34334003925323486,-4.775025844573975,-1.8599653244018555
1773231962920739000,15.510739013671875,0.09921574592590332,-4.251478672027588,-1.7539892196655273
1773231962936730600,15.526730712890625,0.5000464916229248,-3.102774143218994,-1.5598230361938477
1773231962952723200,15.54272314453125,0.7636891603469849,-1.5042533874511719,-1.7621898651123047
1773231962968713000,15.558712890625,0.6772982478141785,0.05034589767456055,-2.357449531555176
1773231962984735500,15.574735595703125,0.17420101165771484,1.1913561820983887,-2.797804355621338
1773231963000728000,15.59072802734375,-0.5133635997772217,1.7433819770812988,-2.9705557823181152
1773231963016718800,15.60671875,-1.0326528549194336,1.850111961364746,-2.804457664489746
1773231963032740600,15.62274072265625,-1.1461299657821655,1.8645339012145996,-2.825592517852783
1773231963048730000,15.638730224609375,-0.8428099155426025,1.8120970726013184,-3.2364134788513184
1773231963064723000,15.654722900390626,-0.20709168910980225,1.9841737747192383,-3.8375930786132812
1773231963080714800,15.67071484375,0.162589430809021,2.2375006675720215,-4.572309494018555
1773231963096733400,15.6867333984375,0.4319511651992798,2.472169876098633,-5.369981288909912
1773231963112727000,15.70272705078125,0.6171212196350098,2.9062066078186035,-5.911242485046387
1773231963128717800,15.7187177734375,0.7494126558303833,3.4716434478759766,-6.551837921142578
1773231963144740400,15.734740234375,0.8234989643096924,4.246623516082764,-7.200134754180908
1773231963160729900,15.750729736328125,0.8002046346664429,4.864838600158691,-8.058701515197754
1773231963176721700,15.7667216796875,0.6152437925338745,4.976049423217773,-8.980899810791016
1773231963192713700,15.782713623046876,0.7468751668930054,4.841487884521484,-9.638442993164062
1773231963208735000,15.79873486328125,1.1874445676803589,4.805168628692627,-10.194519996643066
1773231963224725800,15.814725830078125,1.5064040422439575,4.919926643371582,-10.623180389404297
1773231963240717600,15.830717529296875,1.5661131143569946,5.502623081207275,-10.865560531616211
1773231963256738300,15.84673828125,1.4528660774230957,5.704944610595703,-11.281576156616211
1773231963272731000,15.86273095703125,1.590461254119873,4.680125713348389,-12.596638679504395
1773231963288722200,15.87872216796875,2.260910749435425,4.101688385009766,-13.38652229309082
1773231963304714000,15.8947138671875,2.8132290840148926,4.451659679412842,-12.891347885131836
1773231963320733700,15.910733642578125,2.5168683528900146,5.246480941772461,-12.088823318481445
1773231963336723500,15.926723388671874,1.4351484775543213,5.701847553253174,-12.120417594909668
1773231963352716000,15.942716064453125,0.6831406354904175,5.440685272216797,-12.132265090942383
1773231963368737300,15.9587373046875,0.5746592283248901,4.450692653656006,-11.637106895446777
1773231963384729900,15.974729736328126,0.5200263261795044,3.071986675262451,-10.656283378601074
1773231963400721400,15.990721435546876,0.7589712142944336,1.8202853202819824,-10.003512382507324
1773231963416711400,16.00671142578125,1.1279659271240234,0.9605154991149902,-9.407106399536133
1773231963432734000,16.02273388671875,1.150767207145691,0.9014463424682617,-8.46959114074707
1773231963448724000,16.038723876953124,0.9433414936065674,1.0963444709777832,-7.416184425354004
1773231963464716000,16.054716064453125,0.6162985563278198,1.172154426574707,-6.362347602844238
1773231963480738600,16.070738525390624,0.5354706048965454,0.6554417610168457,-5.111897945404053
1773231963496729900,16.086729736328124,0.9019099473953247,0.18022871017456055,-3.5077881813049316
1773231963512719600,16.1027197265625,1.2227861881256104,-0.7597098350524902,-2.3615126609802246
1773231963528711700,16.118711669921876,1.7570703029632568,-1.6672749519348145,-1.4665403366088867
1773231963544733400,16.1347333984375,2.2178661823272705,-2.4245548248291016,-0.6500844955444336
1773231963560724200,16.15072412109375,2.1612868309020996,-2.9054741859436035,0.1081233024597168
1773231963576714800,16.16671484375,1.7032591104507446,-3.2492170333862305,0.7022428512573242
1773231963592738600,16.182738525390626,1.3045364618301392,-3.741732597351074,1.6039643287658691
1773231963608729300,16.198729248046874,1.2114827632904053,-4.148092746734619,2.3272042274475098
1773231963624719600,16.2147197265625,1.239256739616394,-4.41744327545166,3.045285701751709
1773231963640742100,16.2307421875,1.2320504188537598,-4.523101329803467,3.556900978088379
1773231963656732200,16.246732177734376,1.126781940460205,-4.493485927581787,3.9435434341430664
1773231963672724500,16.262724365234376,0.799468994140625,-4.530896186828613,4.110610008239746
1773231963688715800,16.2787158203125,0.4981454610824585,-4.8286051750183105,4.498246669769287
1773231963704736800,16.29473681640625,0.483418345451355,-5.325827598571777,4.793533802032471
1773231963720729300,16.310729248046876,0.45110344886779785,-5.887723922729492,5.104518890380859
1773231963736718800,16.32671875,0.4561086893081665,-6.248378276824951,5.38180685043335
1773231963752710700,16.342710693359376,0.44620561599731445,-6.42342472076416,5.313939094543457
1773231963768731400,16.3587314453125,0.4324144124984741,-6.639263153076172,5.016180515289307
1773231963784724000,16.374723876953126,0.6158628463745117,-6.803401470184326,4.708286762237549
1773231963800715500,16.390715576171875,1.1360807418823242,-6.8707122802734375,3.935152530670166
1773231963816736500,16.406736572265626,1.4080867767333984,-6.624337196350098,3.0676069259643555
1773231963832728000,16.42272802734375,1.5870392322540283,-5.970273971557617,2.6326494216918945
1773231963848719000,16.438718994140626,1.915494680404663,-5.1587605476379395,2.1041693687438965
1773231963864741400,16.454741455078125,2.3853867053985596,-4.061677932739258,1.1426663398742676
1773231963880731000,16.47073095703125,2.439277172088623,-3.177445411682129,-0.4873523712158203
1773231963896723000,16.486722900390625,2.2020506858825684,-2.6655426025390625,-1.3846731185913086
1773231963912714800,16.50271484375,1.7920175790786743,-2.7584261894226074,-0.9298381805419922
1773231963928737000,16.518737060546876,1.320665717124939,-2.599795341491699,-0.3320655822753906
1773231963944726300,16.534726318359375,1.0617880821228027,-1.964271068572998,0.4069633483886719
1773231963960719000,16.550718994140624,0.6176367998123169,-0.9277644157409668,0.7635021209716797
1773231963976708400,16.566708251953123,0.10043191909790039,-0.015614032745361328,0.24498414993286133
1773231963992731100,16.582731201171875,-0.4182242155075073,0.62554931640625,-0.8071341514587402
1773231964008722400,16.598722412109375,-0.5534496307373047,0.9751238822937012,-1.6404399871826172
1773231964024712700,16.614712646484374,-0.3583177328109741,1.1291813850402832,-2.4148082733154297
1773231964040735200,16.6307353515625,0.06915915012359619,1.1713051795959473,-2.8522982597351074
1773231964056726000,16.64672607421875,0.5480127334594727,1.313817024230957,-3.3722352981567383
1773231964072717000,16.662717041015625,0.6782552003860474,1.6282281875610352,-4.278355121612549
1773231964088739600,16.678739501953125,0.23290741443634033,2.0964765548706055,-5.580345153808594
1773231964104729000,16.69472900390625,-0.3438655138015747,2.8122811317443848,-6.829796314239502
1773231964120720000,16.710719970703124,-0.7906336784362793,3.435455799102783,-7.857197284698486
1773231964136723500,16.726723388671875,-0.8578870296478271,4.22942590713501,-8.29701042175293
1773231964152747300,16.742747314453126,-0.7104693651199341,5.011953353881836,-8.648592948913574
1773231964168738300,16.75873828125,-0.6155740022659302,5.390267372131348,-9.114501953125
1773231964184728600,16.774728515625,-0.5162427425384521,5.415307998657227,-10.033697128295898
1773231964200751900,16.790751953125,-0.10493624210357666,5.279962539672852,-10.730287551879883
1773231964216742700,16.80674267578125,0.4885130524635315,5.1154303550720215,-11.189425468444824
1773231964232733200,16.822733154296873,0.8594763278961182,5.20088529586792,-11.744624137878418
1773231964248725800,16.838725830078126,0.6798000931739807,5.490401744842529,-11.885087013244629
1773231964264746500,16.85474658203125,-0.05434298515319824,5.079112529754639,-12.627890586853027
1773231964280737800,16.87073779296875,-0.3401045799255371,4.275267124176025,-13.917232513427734
1773231964296728300,16.886728271484376,-0.02060079574584961,4.340257167816162,-14.571707725524902
1773231964312751600,16.902751708984376,-0.459924578666687,5.28900146484375,-14.509347915649414
1773231964328741000,16.9187412109375,-1.5585404634475708,6.105963706970215,-14.468406677246094
1773231964344733700,16.934733642578124,-1.9214614629745483,5.869352340698242,-14.195230484008789
1773231964360734000,16.95073388671875,-1.5281933546066284,4.5841546058654785,-13.575798988342285
1773231964376745000,16.966744873046874,-1.01292085647583,2.6312122344970703,-12.761208534240723
1773231964392737300,16.9827373046875,-0.270526647567749,0.9049892425537109,-11.659811973571777
1773231964408729000,16.99872900390625,0.43608546257019043,-0.36242198944091797,-10.482294082641602
1773231964424750800,17.014750732421874,1.1024731397628784,-0.640498161315918,-9.04912281036377
1773231964440739600,17.030739501953125,1.5786410570144653,-0.3513507843017578,-7.269229412078857
1773231964456733400,17.0467333984375,2.010587692260742,-0.09572267532348633,-5.608154773712158
1773231964472724200,17.06272412109375,2.46817946434021,-0.01809215545654297,-4.061043739318848
1773231964488745700,17.078745849609376,2.7933032512664795,-0.2489032745361328,-2.643369674682617
1773231964504737500,17.094737548828125,2.9274680614471436,-0.7224688529968262,-1.6241068840026855
1773231964520727600,17.1107275390625,2.8630614280700684,-1.2654919624328613,-0.8075299263000488
1773231964536749800,17.126749755859375,2.7666468620300293,-1.7683868408203125,0.24905872344970703
1773231964552741000,17.1427412109375,2.5611701011657715,-2.2074875831604004,1.2652716636657715
1773231964568732200,17.158732177734375,2.3107340335845947,-2.6604456901550293,2.0183539390563965
1773231964584724700,17.174724853515624,2.134909152984619,-2.9372830390930176,2.7473583221435547
1773231964600745700,17.190745849609375,2.082134246826172,-3.353785514831543,3.382580280303955
1773231964616737800,17.20673779296875,2.0265748500823975,-3.673281192779541,3.9348502159118652
1773231964632727600,17.2227275390625,1.8689861297607422,-3.7871437072753906,4.524139404296875
1773231964648748800,17.238748779296873,1.6601182222366333,-3.7708206176757812,4.859194755554199
1773231964664740600,17.25474072265625,1.3166782855987549,-3.857200860977173,4.865137100219727
1773231964680733200,17.270733154296874,1.0403828620910645,-4.234796524047852,4.636412143707275
1773231964696723000,17.286722900390625,0.8827910423278809,-4.727336883544922,4.6015825271606445
1773231964712745700,17.302745849609376,0.9805669784545898,-5.157931327819824,4.58695125579834
1773231964728735500,17.318735595703124,1.1583172082901,-5.475573539733887,4.578915119171143
1773231964744727000,17.33472705078125,1.6429115533828735,-5.537929058074951,4.508174896240234
1773231964760747800,17.350747802734375,2.0988762378692627,-5.843567848205566,3.9062108993530273
1773231964776739000,17.366739013671875,2.4266748428344727,-6.141035079956055,3.357483386993408
1773231964792732000,17.38273193359375,2.7748148441314697,-6.136847019195557,3.118671417236328
1773231964808754200,17.398754150390626,2.898683786392212,-5.923229217529297,2.849034309387207
1773231964824743700,17.41474365234375,2.8309061527252197,-5.23759651184082,2.7617101669311523
1773231964840734700,17.430734619140626,2.6567132472991943,-4.308611869812012,1.847501277923584
1773231964856726500,17.4467265625,2.3490238189697266,-3.322040319442749,0.31139469146728516
1773231964872748800,17.462748779296874,1.7632241249084473,-2.6024765968322754,-1.0248432159423828
1773231964888739800,17.47873974609375,0.9332831501960754,-2.314617156982422,-1.7426557540893555
1773231964904732000,17.49473193359375,0.29555439949035645,-2.4225125312805176,-1.8852357864379883
1773231964920753400,17.51075341796875,-0.02317023277282715,-2.2174482345581055,-1.437434196472168
1773231964936745200,17.5267451171875,-0.1773449182510376,-1.3732781410217285,-0.6193141937255859
1773231964952736000,17.542736083984376,-0.4245980978012085,-0.18297815322875977,-0.14786338806152344
1773231964968726500,17.5587265625,-0.7279421091079712,0.9599742889404297,-0.5221271514892578
1773231964984747000,17.5747470703125,-0.8049468994140625,1.8533782958984375,-1.6782793998718262
1773231965000738600,17.590738525390623,-0.9323256015777588,2.335358142852783,-2.7345213890075684
1773231965016730000,17.606730224609375,-1.2095544338226318,2.393216609954834,-2.790607452392578
1773231965032752600,17.622752685546875,-1.118736982345581,2.2130236625671387,-2.27296781539917
1773231965048744200,17.638744140625,-0.6100795269012451,2.0786776542663574,-2.127936363220215
1773231965064735000,17.65473486328125,0.07749736309051514,2.128180980682373,-2.7432756423950195
1773231965080725500,17.6707255859375,0.3888052701950073,2.427877426147461,-3.596867084503174
1773231965096748500,17.68674853515625,0.2396925687789917,2.721436023712158,-4.728556156158447
1773231965112739600,17.702739501953126,0.18182659149169922,3.0760064125061035,-5.7876200675964355
1773231965128731100,17.718731201171874,0.06125938892364502,3.515329360961914,-6.489588260650635
1773231965144751900,17.734751953125,-0.14106857776641846,4.006256103515625,-6.951482772827148
1773231965160743700,17.75074365234375,-0.4121130704879761,4.451892852783203,-7.621088027954102
1773231965176734700,17.766734619140625,-0.4678419828414917,4.50634765625,-8.781153678894043
1773231965192726300,17.782726318359376,-0.19337332248687744,4.543715953826904,-10.298772811889648
1773231965208745500,17.798745361328123,0.1834937334060669,4.441074371337891,-11.437819480895996
1773231965224739800,17.81473974609375,0.4652758836746216,4.409435749053955,-12.004239082336426
1773231965240729000,17.83072900390625,0.33275604248046875,4.441786289215088,-12.289881706237793
1773231965256752000,17.846752197265626,-0.06415355205535889,3.765292167663574,-13.428672790527344
1773231965272743200,17.8627431640625,0.08509349822998047,2.7296342849731445,-14.552277565002441
1773231965288734500,17.878734375,0.6416839957237244,2.7717971801757812,-14.738153457641602
1773231965304725800,17.894725830078126,0.07106447219848633,4.324280738830566,-13.93651008605957
1773231965320748000,17.910748046875,-1.131156325340271,5.696235656738281,-13.524450302124023
1773231965336738600,17.926738525390626,-1.3855011463165283,5.949126243591309,-13.931245803833008
1773231965352729900,17.942729736328126,-1.2383220195770264,5.070337295532227,-13.394118309020996
1773231965368750300,17.958750244140624,-0.9045487642288208,3.6052932739257812,-12.086432456970215
1773231965384743200,17.9747431640625,-0.3258645534515381,2.3611111640930176,-10.431528091430664
1773231965400734700,17.990734619140625,0.2537292242050171,1.3939790725708008,-9.10790729522705
1773231965416722700,18.00672265625,0.853243887424469,1.0898089408874512,-7.8324875831604
1773231965432746800,18.022746826171876,1.2679028511047363,1.2387614250183105,-6.685520648956299
1773231965448737500,18.038737548828124,1.4972562789916992,1.4112348556518555,-5.56368350982666
1773231965464727300,18.054727294921875,1.9096356630325317,1.475043773651123,-4.334709644317627
1773231965480751000,18.070751220703126,2.263699769973755,1.3457083702087402,-3.205686092376709
1773231965496742700,18.08674267578125,2.4329209327697754,1.0169801712036133,-2.2840609550476074
1773231965512733200,18.102733154296875,2.2410545349121094,0.42115163803100586,-1.4739742279052734
1773231965528725000,18.11872509765625,2.2546193599700928,0.030169010162353516,-0.7474212646484375
1773231965544746200,18.134746337890626,2.4281954765319824,-0.4437990188598633,-0.17453241348266602
1773231965560737300,18.1507373046875,2.3613803386688232,-0.963463306427002,0.42944765090942383
1773231965576727300,18.166727294921873,2.284057140350342,-1.4800105094909668,0.9187784194946289
1773231965592750000,18.18275,2.2404139041900635,-2.1679201126098633,1.2190184593200684
1773231965608743000,18.198742919921877,2.186805009841919,-2.7894768714904785,1.5968337059020996
1773231965624733200,18.214733154296876,2.1016762256622314,-3.1854419708251953,1.9320201873779297
1773231965640723500,18.230723388671876,1.829776644706726,-3.581800937652588,2.0616073608398438
1773231965656746200,18.246746337890624,1.5199763774871826,-3.882077693939209,2.168252468109131
1773231965672737000,18.262737060546876,1.1401894092559814,-4.467076301574707,2.58467435836792
1773231965688727600,18.2787275390625,1.213395357131958,-5.085763931274414,3.124396324157715
1773231965704750800,18.294750732421875,1.8040916919708252,-5.692136287689209,3.6649794578552246
1773231965720742000,18.310741943359375,2.5845813751220703,-5.980764865875244,4.103812217712402
1773231965736732000,18.32673193359375,3.375807285308838,-5.961465358734131,4.4455885887146
1773231965752755000,18.3427548828125,3.900057315826416,-6.040757656097412,4.455270767211914
1773231965768744400,18.358744384765625,4.090878486633301,-5.935999393463135,4.508657932281494
1773231965784735500,18.374735595703125,4.08223819732666,-5.736807823181152,4.211378574371338
1773231965800728600,18.390728515625,3.7555770874023438,-5.226707458496094,3.781062126159668
1773231965816748500,18.40674853515625,3.570756673812866,-4.449322700500488,3.1711506843566895
1773231965832741000,18.4227412109375,3.473698139190674,-3.6029415130615234,2.2888221740722656
1773231965848732200,18.438732177734376,3.3065185546875,-2.833468437194824,1.074150562286377
1773231965864753400,18.45475341796875,2.821682929992676,-2.336639881134033,-0.038168907165527344
1773231965880745500,18.470745361328124,2.1510629653930664,-2.158987522125244,-0.5507545471191406
1773231965896736500,18.486736572265624,1.560685157775879,-1.926518440246582,-0.7758760452270508
1773231965912728000,18.50272802734375,1.106170654296875,-1.3322334289550781,-0.507779598236084
1773231965928749800,18.518749755859375,0.6903005838394165,-0.35597848892211914,-0.12370824813842773
1773231965944740600,18.53474072265625,0.13608789443969727,0.6571407318115234,-0.2418055534362793
1773231965960730400,18.55073046875,-0.6166490316390991,1.4975175857543945,-0.9028849601745605
1773231965976752400,18.56675244140625,-1.3342987298965454,1.9820237159729004,-1.6852669715881348
1773231965992744400,18.582744384765626,-1.8322101831436157,2.0692243576049805,-2.259432315826416
1773231966008736800,18.59873681640625,-2.000363826751709,2.0403695106506348,-2.3600807189941406
1773231966024725800,18.614725830078125,-1.8296277523040771,2.0566892623901367,-2.5334439277648926
1773231966040748800,18.630748779296876,-1.6202545166015625,2.0079565048217773,-3.1911115646362305
1773231966056739300,18.6467392578125,-1.8560619354248047,2.1202101707458496,-4.122136116027832
1773231966072731100,18.662731201171876,-2.2051844596862793,2.5372724533081055,-5.260975360870361
1773231966088753200,18.678753173828124,-2.612067222595215,3.1541595458984375,-6.490348815917969
1773231966104745000,18.694744873046876,-2.858994483947754,3.782259941101074,-7.800039768218994
1773231966120735500,18.710735595703124,-2.731477975845337,4.359136581420898,-8.98471736907959
1773231966136727600,18.7267275390625,-2.7974555492401123,5.0525803565979,-10.000876426696777
1773231966160743700,18.75074365234375,-3.4811971187591553,5.89486837387085,-11.52136516571045
1773231966176735200,18.7667353515625,-3.836930274963379,6.140519142150879,-12.544710159301758
1773231966192727000,18.78272705078125,-3.8731770515441895,6.226385116577148,-12.94180679321289
1773231966208746800,18.798746826171875,-3.535619020462036,6.106776237487793,-13.002427101135254
1773231966224739800,18.81473974609375,-3.1343507766723633,5.8890886306762695,-12.913996696472168
1773231966240731000,18.83073095703125,-2.7242467403411865,4.704835891723633,-13.80681324005127
1773231966256752600,18.846752685546875,-2.0939507484436035,3.0879740715026855,-15.06581974029541
1773231966272743000,18.862742919921875,-0.9923226833343506,2.681619167327881,-15.14770221710205
1773231966288733700,18.878733642578126,-0.5700005888938904,3.6236624717712402,-13.849935531616211
1773231966304726300,18.894726318359375,-0.9023323655128479,4.433548927307129,-12.596488952636719
1773231966320748500,18.91074853515625,-1.2122846841812134,4.377051830291748,-12.381780624389648
1773231966336738000,18.926738037109374,-1.0073204040527344,3.3403053283691406,-12.432153701782227
1773231966352730400,18.94273046875,0.02095627784729004,1.6520705223083496,-12.067022323608398
1773231966368752400,18.95875244140625,0.7327659726142883,0.2350788116455078,-10.930450439453125
1773231966384743700,18.97474365234375,1.2684695720672607,-0.7894115447998047,-9.537914276123047
1773231966400734500,18.990734375,1.8049793243408203,-0.9215574264526367,-7.966437339782715
1773231966416725000,19.00672509765625,2.2213709354400635,-0.6065883636474609,-6.198924541473389
1773231966432747300,19.022747314453124,2.506873607635498,-0.20106029510498047,-4.603960990905762
1773231966448738000,19.038738037109376,2.577345848083496,0.025674819946289062,-3.2962846755981445
1773231966464728600,19.054728515625,2.4620957374572754,-0.0527338981628418,-2.096518039703369
1773231966480750300,19.070750244140626,2.317594051361084,-0.3456697463989258,-0.9784226417541504
1773231966496743200,19.0867431640625,2.16573429107666,-0.6738696098327637,-0.017266273498535156
1773231966512733400,19.1027333984375,1.8929274082183838,-0.9019150733947754,0.8512964248657227
1773231966528726000,19.11872607421875,1.823357105255127,-1.298814296722412,1.898237705230713
1773231966544747000,19.1347470703125,1.8583705425262451,-1.5789246559143066,2.857402801513672
1773231966560737000,19.150737060546874,1.7500276565551758,-1.9949169158935547,3.531564235687256
1773231966576728300,19.166728271484374,1.6663190126419067,-2.303400993347168,3.831480026245117
1773231966592750300,19.182750244140625,1.5041197538375854,-2.4707841873168945,4.211288928985596
1773231966608743200,19.1987431640625,1.2003649473190308,-2.8425240516662598,4.249991416931152
1773231966624733200,19.214733154296876,0.9175845384597778,-3.114741563796997,4.581923484802246
1773231966640724000,19.230723876953125,0.6128956079483032,-3.56022310256958,4.769909381866455
1773231966656745700,19.246745849609376,0.40728485584259033,-4.153365135192871,4.563666343688965
1773231966672737500,19.262737548828124,0.6515834331512451,-4.763920783996582,4.301844596862793
1773231966688729300,19.278729248046876,0.9556423425674438,-5.0708770751953125,3.896040916442871
1773231966704750800,19.294750732421875,1.1985329389572144,-5.238949298858643,3.6583499908447266
1773231966720742400,19.310742431640627,1.5454702377319336,-5.255040168762207,3.766505241394043
1773231966736731600,19.326731689453126,2.1850390434265137,-5.3260345458984375,3.731882095336914
1773231966752754400,19.34275439453125,2.6757469177246094,-5.476226329803467,3.545926094055176
1773231966768747000,19.3587470703125,2.847590446472168,-5.296993255615234,3.2958426475524902
1773231966784736800,19.37473681640625,2.4175519943237305,-4.8836164474487305,2.666670799255371
1773231966800728300,19.390728271484374,1.9606142044067383,-4.060116767883301,2.1152234077453613
1773231966816749000,19.4067490234375,1.6129168272018433,-3.3572707176208496,1.1113715171813965
1773231966832741600,19.42274169921875,1.2412117719650269,-2.644392490386963,-0.061255455017089844
1773231966848733400,19.4387333984375,0.8828870058059692,-2.215444564819336,-1.0440187454223633
1773231966864754000,19.45475390625,0.38416773080825806,-2.0624747276306152,-1.698709487915039
1773231966880744200,19.470744140625,-0.007771015167236328,-2.0925421714782715,-1.9347515106201172
1773231966896737300,19.4867373046875,-0.2196211814880371,-1.7701020240783691,-1.759699821472168
1773231966912727800,19.502727783203124,-0.1957995891571045,-0.9434032440185547,-1.1477241516113281
1773231966928750800,19.518750732421875,-0.1323249340057373,0.3894376754760742,-0.9680657386779785
1773231966944740900,19.534740966796875,-0.4203060269355774,1.4524259567260742,-1.5195503234863281
1773231966960731100,19.550731201171875,-1.003166913986206,2.1198949813842773,-2.4775161743164062
1773231966976723700,19.5667236328125,-1.5763013362884521,2.397861957550049,-3.0837674140930176
1773231966992745500,19.582745361328126,-1.7951867580413818,2.4789505004882812,-3.0826711654663086
1773231967008735200,19.5987353515625,-1.6564388275146484,2.5802745819091797,-3.1425065994262695
1773231967024727600,19.6147275390625,-1.5718934535980225,2.7106781005859375,-3.6254324913024902
1773231967040748000,19.630748046875,-1.3465977907180786,2.8963637351989746,-4.385453224182129
1773231967056740600,19.64674072265625,-1.2083181142807007,3.2628588676452637,-5.655508995056152
1773231967072731100,19.662731201171876,-1.3339722156524658,3.634653091430664,-6.81048059463501
1773231967088752400,19.67875244140625,-1.4703952074050903,4.003636837005615,-7.557335376739502
1773231967104742700,19.69474267578125,-1.4831427335739136,4.4380035400390625,-8.046135902404785
1773231967120734700,19.710734619140624,-1.3101035356521606,4.936408996582031,-8.626782417297363
1773231967136728000,19.72672802734375,-1.0309346914291382,5.291849613189697,-9.471388816833496
1773231967152748500,19.74274853515625,-0.9490408301353455,5.371208190917969,-10.401803970336914
1773231967168739800,19.75873974609375,-0.8999282121658325,5.1856560707092285,-11.376564025878906
1773231967184729000,19.77472900390625,-0.7423819303512573,5.116002082824707,-12.014955520629883
1773231967200752000,19.790752197265626,-0.7898098230361938,5.124359607696533,-12.325407981872559
1773231967216745200,19.8067451171875,-1.1192095279693604,5.349630832672119,-12.86815071105957
1773231967232735200,19.8227353515625,-1.7303043603897095,4.954265117645264,-14.198641777038574
1773231967248726300,19.838726318359374,-2.307530403137207,4.0477423667907715,-15.66382122039795
1773231967264749600,19.85474951171875,-2.612119197845459,3.8332324028015137,-16.17380714416504
1773231967280740600,19.87074072265625,-3.3153038024902344,4.548880100250244,-15.135162353515625
1773231967296731000,19.88673095703125,-4.345709800720215,5.136221885681152,-13.957907676696777
1773231967312752600,19.902752685546876,-4.749654769897461,5.024844169616699,-13.43498420715332
1773231967328744200,19.918744140625,-4.175539016723633,4.164430141448975,-13.274452209472656
1773231967344735700,19.93473583984375,-3.4598917961120605,2.6307225227355957,-12.740915298461914
1773231967360725000,19.95072509765625,-2.864063024520874,1.1324148178100586,-11.757829666137695
1773231967376746800,19.966746826171875,-2.03955078125,-0.32462215423583984,-10.751380920410156
1773231967392739600,19.982739501953127,-1.1298562288284302,-1.0087928771972656,-9.558107376098633
1773231967408731000,19.99873095703125,-0.1752742975950241,-1.1018505096435547,-7.921010971069336
1773231967424751400,20.01475146484375,0.5599380731582642,-0.8456335067749023,-6.2999701499938965
1773231967440742700,20.03074267578125,1.0159783363342285,-0.6695575714111328,-4.708336353302002
1773231967456733200,20.046733154296874,1.4882721900939941,-0.6964893341064453,-3.229808807373047
1773231967472726300,20.062726318359374,1.6895685195922852,-1.0328593254089355,-1.768052101135254
1773231967488746500,20.07874658203125,1.7445592880249023,-1.30015230178833,-0.5015077590942383
1773231967504737500,20.094737548828125,1.7199360132217407,-1.6656956672668457,0.5231451988220215
1773231967520730000,20.110730224609377,1.780224084854126,-1.9549498558044434,1.6093382835388184
1773231967536751400,20.12675146484375,1.7383573055267334,-2.0979228019714355,2.3726887702941895
1773231967552742100,20.1427421875,1.6140086650848389,-2.2723231315612793,2.959606647491455
1773231967568734000,20.15873388671875,1.4290897846221924,-2.403071403503418,3.8101892471313477
1773231967584755700,20.174755615234375,1.2910536527633667,-2.534031867980957,4.532364368438721
1773231967600747500,20.19074755859375,1.3533786535263062,-2.7295775413513184,4.8969879150390625
1773231967616738300,20.20673828125,1.3677258491516113,-2.9933578968048096,5.098774433135986
1773231967632730600,20.222730712890623,1.197800874710083,-3.2328989505767822,5.35908317565918
1773231967648751900,20.238751953125,0.9180656671524048,-3.6180906295776367,5.458500862121582
1773231967664743200,20.2547431640625,0.639398455619812,-4.174848556518555,5.516267776489258
1773231967680733000,20.27073291015625,0.5353628993034363,-4.710258483886719,5.722811698913574
1773231967696725200,20.286725341796874,0.476298987865448,-5.202212810516357,5.9045634269714355
1773231967712746800,20.302746826171877,0.4924764037132263,-5.218712329864502,5.969579219818115
1773231967728738000,20.318738037109377,0.778466522693634,-5.2475361824035645,5.062074184417725
1773231967744729300,20.334729248046877,0.9222685098648071,-5.394364833831787,3.7181472778320312
1773231967760750300,20.350750244140624,1.1851698160171509,-5.445788860321045,3.086552143096924
1773231967776740400,20.366740234375,1.5447337627410889,-5.433030128479004,2.8582077026367188
1773231967792734200,20.382734130859376,1.9701913595199585,-4.859157562255859,2.3276596069335938
1773231967808724200,20.39872412109375,2.2000930309295654,-4.046644687652588,0.9867520332336426
1773231967824745500,20.414745361328126,1.969714641571045,-3.241563320159912,-0.6893272399902344
1773231967840738300,20.43073828125,1.6322778463363647,-2.6462016105651855,-2.1356067657470703
1773231967856727800,20.446727783203126,1.051601767539978,-2.4082136154174805,-3.1360960006713867
1773231967872750000,20.46275,0.5351129174232483,-2.357150077819824,-3.53768253326416
1773231967888740400,20.478740234375,0.3715352416038513,-2.1521363258361816,-3.6231088638305664
1773231967904732000,20.49473193359375,0.5167517066001892,-1.3489456176757812,-3.137364387512207
