time,seconds_elapsed,z,y,x
1773231947712703000,0.302702880859375,9.740352630615234,1.0118348598480225,0.5216445326805115
1773231947728726300,0.318726318359375,9.737698554992676,1.0539982318878174,0.4865139424800873
1773231947744717600,0.334717529296875,9.738460540771484,1.1014456748962402,0.3458344042301178
1773231947760738300,0.35073828125,9.748230934143066,1.0594747066497803,0.1410769522190094
1773231947776729600,0.3667294921875,9.75085735321045,1.0444793701171875,-0.01509958878159523
1773231947792723500,0.382723388671875,9.747565269470215,1.0733269453048706,-0.0577278770506382
1773231947808744700,0.39874462890625,9.7448148727417,1.0935436487197876,-0.11455447226762772
1773231947824735200,0.4147353515625,9.739860534667969,1.1228522062301636,-0.21145275235176086
1773231947840727300,0.430727294921875,9.730756759643555,1.1826298236846924,-0.2900744080543518
1773231947856718800,0.44671875,9.715139389038086,1.2930270433425903,-0.3384222984313965
1773231947872739600,0.462739501953125,9.691373825073242,1.453560471534729,-0.36716803908348083
1773231947888729900,0.478729736328125,9.671687126159668,1.5834294557571411,-0.34871670603752136
1773231947904720600,0.494720703125,9.662980079650879,1.636303424835205,-0.3459845781326294
1773231947920743200,0.5107431640625,9.669840812683105,1.6097019910812378,-0.2709719240665436
1773231947936734700,0.526734619140625,9.650721549987793,1.729655385017395,-0.20554617047309875
1773231947952726800,0.542726806640625,9.605093955993652,1.9593855142593384,-0.27087482810020447
1773231947968717600,0.558717529296875,9.550299644470215,2.1988189220428467,-0.35687682032585144
1773231947984737500,0.574737548828125,9.491766929626465,2.430194139480591,-0.41340699791908264
1773231948000729300,0.590729248046875,9.425633430480957,2.674121618270874,-0.42058688402175903
1773231948016722200,0.60672216796875,9.424722671508789,2.6682944297790527,-0.474543958902359
1773231948032743200,0.6227431640625,9.427247047424316,2.651240587234497,-0.5179969668388367
1773231948048735000,0.63873486328125,9.42988395690918,2.6356332302093506,-0.5487371683120728
1773231948064725500,0.6547255859375,9.429826736450195,2.6308133602142334,-0.5723374485969543
1773231948080715300,0.67071533203125,9.426862716674805,2.636354446411133,-0.595217764377594
1773231948096737500,0.686737548828125,9.424528121948242,2.6383862495422363,-0.6225578188896179
1773231948112730000,0.702730224609375,9.431737899780273,2.615983247756958,-0.6077349185943604
1773231948128720400,0.718720458984375,9.43915843963623,2.5987300872802734,-0.5650407075881958
1773231948144743200,0.7347431640625,9.437490463256836,2.6118416786193848,-0.5314584374427795
1773231948160734500,0.750734375,9.42558479309082,2.6643002033233643,-0.4798375964164734
1773231948176726300,0.766726318359375,9.407684326171875,2.735553741455078,-0.42731159925460815
1773231948192716500,0.782716552734375,9.390678405761719,2.7981672286987305,-0.3947269022464752
1773231948208738600,0.798738525390625,9.381281852722168,2.8305230140686035,-0.3873942196369171
1773231948224729000,0.81472900390625,9.381169319152832,2.827543258666992,-0.4111602306365967
1773231948240721000,0.830720947265625,9.385310173034668,2.8033041954040527,-0.4773014485836029
1773231948256741600,0.84674169921875,9.383532524108887,2.795821189880371,-0.5505328178405762
1773231948272733200,0.862733154296875,9.365302085876465,2.843946933746338,-0.6111187934875488
1773231948288723500,0.878723388671875,9.3241548538208,2.9601123332977295,-0.6842951774597168
1773231948304716500,0.894716552734375,9.258513450622559,3.1306419372558594,-0.8058600425720215
1773231948320737800,0.91073779296875,9.17086124420166,3.3291900157928467,-0.9910464286804199
1773231948336729600,0.9267294921875,9.066776275634766,3.533282518386841,-1.2164994478225708
1773231948352721000,0.942720947265625,8.954155921936035,3.723667621612549,-1.458692193031311
1773231948368742100,0.9587421875,8.847075462341309,3.884256362915039,-1.676962971687317
1773231948384734000,0.97473388671875,8.780381202697754,3.9739277362823486,-1.8119615316390991
1773231948400722200,0.99072216796875,8.740884780883789,4.004772663116455,-1.9310946464538574
1773231948416714800,1.00671484375,8.729878425598145,3.972618341445923,-2.043997287750244
1773231948432737000,1.022737060546875,8.749908447265625,3.8892037868499756,-2.1174471378326416
1773231948448727300,1.038727294921875,8.791206359863281,3.792556047439575,-2.121696710586548
1773231948464720400,1.054720458984375,8.8377685546875,3.7134079933166504,-2.06756854057312
1773231948480740600,1.07074072265625,8.879952430725098,3.6638906002044678,-1.973000168800354
1773231948496733000,1.08673291015625,8.922818183898926,3.6289398670196533,-1.8396999835968018
1773231948512723500,1.102723388671875,8.969353675842285,3.5817513465881348,-1.7006256580352783
1773231948528714000,1.1187138671875,9.01787281036377,3.5107920169830322,-1.5883005857467651
1773231948544736500,1.134736572265625,9.069389343261719,3.4106383323669434,-1.5113260746002197
1773231948560726800,1.150726806640625,9.12834358215332,3.2712175846099854,-1.4638538360595703
1773231948576720600,1.166720703125,9.188431739807129,3.1048190593719482,-1.4502426385879517
1773231948592742000,1.182741943359375,9.240757942199707,2.938164234161377,-1.4649144411087036
1773231948608731000,1.19873095703125,9.28207778930664,2.8054957389831543,-1.4637717008590698
1773231948624722700,1.21472265625,9.318142890930176,2.716486930847168,-1.4011808633804321
1773231948640745200,1.2307451171875,9.343025207519531,2.6806044578552246,-1.3010081052780151
1773231948656735700,1.24673583984375,9.351134300231934,2.683915853500366,-1.2342065572738647
1773231948672726800,1.262726806640625,9.33796501159668,2.723961591720581,-1.2461248636245728
1773231948688719400,1.27871923828125,9.308905601501465,2.7866642475128174,-1.322558879852295
1773231948704740600,1.29474072265625,9.271245002746582,2.8565311431884766,-1.4334009885787964
1773231948720729900,1.310729736328125,9.238836288452148,2.9100074768066406,-1.531718134880066
1773231948736724000,1.326723876953125,9.225852966308594,2.9233956336975098,-1.5835943222045898
1773231948752714500,1.342714599609375,9.239794731140137,2.8850271701812744,-1.5726430416107178
1773231948768734700,1.358734619140625,9.278077125549316,2.798712968826294,-1.5016285181045532
1773231948784726500,1.3747265625,9.323040962219238,2.7020857334136963,-1.396431565284729
1773231948800717300,1.39071728515625,9.363821983337402,2.624067544937134,-1.2662912607192993
1773231948816740600,1.40674072265625,9.39670467376709,2.569601535797119,-1.1267130374908447
1773231948832730400,1.42273046875,9.417980194091797,2.549981117248535,-0.9847023487091064
1773231948848722000,1.438721923828125,9.426640510559082,2.560713529586792,-0.8669316172599792
1773231948864741600,1.45474169921875,9.422393798828125,2.5938937664031982,-0.8127674460411072
1773231948880734500,1.470734375,9.415167808532715,2.614794969558716,-0.8293625712394714
1773231948896727000,1.48672705078125,9.407129287719727,2.628096342086792,-0.8771613240242004
1773231948912717300,1.50271728515625,9.399816513061523,2.6452155113220215,-0.9037009477615356
1773231948928739000,1.518739013671875,9.392833709716797,2.67643141746521,-0.884183943271637
1773231948944731000,1.53473095703125,9.385432243347168,2.718912124633789,-0.8315970301628113
1773231948960722200,1.55072216796875,9.376849174499512,2.766615867614746,-0.768713653087616
1773231948976743400,1.566743408203125,9.367371559143066,2.8116564750671387,-0.7192618250846863
1773231948992734200,1.582734130859375,9.359509468078613,2.844855785369873,-0.6904931664466858
1773231949008726300,1.598726318359375,9.356534957885742,2.8590593338012695,-0.6718728542327881
1773231949024717300,1.61471728515625,9.361044883728027,2.847249746322632,-0.6590931415557861
1773231949040739300,1.6307392578125,9.370519638061523,2.81801438331604,-0.6500309705734253
1773231949056731100,1.646731201171875,9.382813453674316,2.7785348892211914,-0.642602264881134
1773231949072722000,1.662721923828125,9.396867752075195,2.733729362487793,-0.6292740702629089
1773231949088742700,1.67874267578125,9.413412094116211,2.680844306945801,-0.609214723110199
1773231949104733200,1.694733154296875,9.429081916809082,2.6296372413635254,-0.5897522568702698
1773231949120725500,1.7107255859375,9.437226295471191,2.6007161140441895,-0.5877275466918945
1773231949136717300,1.72671728515625,9.440590858459473,2.5885183811187744,-0.5875455737113953
1773231949152738800,1.74273876953125,9.439797401428223,2.5993967056274414,-0.5511305928230286
1773231949168729900,1.758729736328125,9.432604789733887,2.6324896812438965,-0.5160834193229675
1773231949184721200,1.77472119140625,9.421225547790527,2.6756386756896973,-0.50184166431427
1773231949200743000,1.790742919921875,9.41036319732666,2.7145802974700928,-0.4965016543865204
1773231949216734500,1.806734375,9.403308868408203,2.741010904312134,-0.48480239510536194
1773231949232725000,1.82272509765625,9.401339530944824,2.7470598220825195,-0.4887431561946869
1773231949248716500,1.838716552734375,9.407885551452637,2.709989309310913,-0.5639516115188599
1773231949264735700,1.85473583984375,9.419584274291992,2.639802932739258,-0.6879363656044006
1773231949280729600,1.8707294921875,9.427576065063477,2.5768814086914062,-0.8067768812179565
1773231949296721000,1.886720947265625,9.426727294921875,2.5582776069641113,-0.8731621503829956
1773231949312742700,1.90274267578125,9.418496131896973,2.590519905090332,-0.8669121265411377
1773231949328733700,1.918733642578125,9.408634185791016,2.6377556324005127,-0.8307978510856628
1773231949344722700,1.93472265625,9.405377388000488,2.6585118770599365,-0.800987720489502
1773231949360716500,1.950716552734375,9.413975715637207,2.6315219402313232,-0.7890191674232483
1773231949376736300,1.966736328125,9.431368827819824,2.5623528957366943,-0.8087124228477478
1773231949392728600,1.982728515625,9.448153495788574,2.4853105545043945,-0.852060854434967
1773231949408719400,1.99871923828125,9.464950561523438,2.409252882003784,-0.8835145235061646
1773231949424740000,2.014739990234375,9.481466293334961,2.3426549434661865,-0.8855199217796326
1773231949440733200,2.030733154296875,9.497682571411133,2.286980152130127,-0.8568177223205566
1773231949456724200,2.04672412109375,9.511819839477539,2.244235038757324,-0.8118312358856201
1773231949472715000,2.062715087890625,9.519742012023926,2.218276262283325,-0.7900301814079285
1773231949488737300,2.0787373046875,9.520699501037598,2.2070651054382324,-0.809648334980011
1773231949504728600,2.094728515625,9.515483856201172,2.2138991355895996,-0.851239800453186
1773231949520718300,2.11071826171875,9.507259368896484,2.2319071292877197,-0.8949871063232422
1773231949536742000,2.126741943359375,9.501299858093262,2.2494313716888428,-0.9141906499862671
1773231949552733000,2.14273291015625,9.49992847442627,2.2534902095794678,-0.9184367656707764
1773231949568721400,2.158721435546875,9.504168510437012,2.23677396774292,-0.9154316782951355
1773231949584713500,2.17471337890625,9.5125093460083,2.2017269134521484,-0.9137557744979858
1773231949600736000,2.190736083984375,9.522278785705566,2.1623775959014893,-0.905931293964386
1773231949616727000,2.20672705078125,9.529234886169434,2.139014959335327,-0.8880795836448669
1773231949632719400,2.22271923828125,9.531221389770508,2.137996196746826,-0.8690158128738403
1773231949648742000,2.238741943359375,9.528050422668457,2.1502668857574463,-0.8734959363937378
1773231949664732200,2.254732177734375,9.522558212280273,2.1602511405944824,-0.9080761075019836
1773231949680723500,2.270723388671875,9.518231391906738,2.155505418777466,-0.9630454182624817
1773231949696714200,2.28671435546875,9.518590927124023,2.12912654876709,-1.0166778564453125
1773231949712736500,2.302736572265625,9.526168823242188,2.0771446228027344,-1.0526026487350464
1773231949728727600,2.3187275390625,9.540669441223145,2.0014421939849854,-1.0678246021270752
1773231949744717300,2.33471728515625,9.556933403015137,1.9137516021728516,-1.0830379724502563
1773231949760740000,2.350739990234375,9.569011688232422,1.8341286182403564,-1.1137229204177856
1773231949776732200,2.366732177734375,9.573620796203613,1.7901681661605835,-1.1451964378356934
1773231949792722200,2.38272216796875,9.571022987365723,1.798680305480957,-1.153540849685669
1773231949808743200,2.3987431640625,9.561877250671387,1.855184555053711,-1.1398136615753174
1773231949824734700,2.414734619140625,9.548069953918457,1.9414699077606201,-1.1115044355392456
1773231949840727000,2.43072705078125,9.531723022460938,2.039806365966797,-1.0750930309295654
1773231949856718300,2.44671826171875,9.513553619384766,2.134643077850342,-1.051657795906067
1773231949872738300,2.46273828125,9.50092601776123,2.1815872192382812,-1.069334626197815
1773231949888730000,2.478730224609375,9.494400024414062,2.1924169063568115,-1.1045632362365723
1773231949904722000,2.494721923828125,9.49446964263916,2.177914619445801,-1.1323119401931763
1773231949920743000,2.510742919921875,9.495588302612305,2.171198606491089,-1.1358160972595215
1773231949936736300,2.526736328125,9.49085521697998,2.203808546066284,-1.1123327016830444
1773231949952725800,2.542725830078125,9.478392601013184,2.27005672454834,-1.0850380659103394
1773231949968717800,2.5587177734375,9.458856582641602,2.346691846847534,-1.0924521684646606
1773231949984736500,2.574736572265625,9.433777809143066,2.4187090396881104,-1.150684118270874
1773231950000730600,2.590730712890625,9.405298233032227,2.4814374446868896,-1.2462860345840454
1773231950016722000,2.606721923828125,9.376675605773926,2.5317134857177734,-1.3560106754302979
1773231950032743000,2.622742919921875,9.351553916931152,2.5669591426849365,-1.4592963457107544
1773231950048734500,2.638734375,9.333288192749023,2.5819103717803955,-1.5472071170806885
1773231950064725200,2.654725341796875,9.322616577148438,2.5771822929382324,-1.6178207397460938
1773231950080717000,2.670717041015625,9.31714153289795,2.562575340270996,-1.6716676950454712
1773231950096739600,2.686739501953125,9.310737609863281,2.5532617568969727,-1.7208737134933472
1773231950112729600,2.7027294921875,9.298579216003418,2.5588183403015137,-1.7774308919906616
1773231950128721000,2.718720947265625,9.277168273925781,2.590726375579834,-1.8419196605682373
1773231950144742400,2.734742431640625,9.250110626220703,2.6514415740966797,-1.8909519910812378
1773231950160734200,2.750734130859375,9.218481063842773,2.7416186332702637,-1.9166420698165894
1773231950176725500,2.7667255859375,9.17952823638916,2.852489471435547,-1.9416356086730957
1773231950192717000,2.782717041015625,9.135225296020508,2.9647881984710693,-1.981938362121582
1773231950208738300,2.79873828125,9.090209007263184,3.0663626194000244,-2.0336902141571045
1773231950224729600,2.8147294921875,9.044318199157715,3.1585004329681396,-2.096322536468506
1773231950240720600,2.830720703125,8.993522644042969,3.2372801303863525,-2.1924779415130615
1773231950256742700,2.84674267578125,8.939486503601074,3.292133092880249,-2.327624559402466
1773231950272733700,2.862733642578125,8.887750625610352,3.3234360218048096,-2.4765002727508545
1773231950288725200,2.878725341796875,8.84218692779541,3.353236198425293,-2.5965192317962646
1773231950304714800,2.89471484375,8.802600860595703,3.407588481903076,-2.6595001220703125
1773231950320737800,2.91073779296875,8.76598072052002,3.4825632572174072,-2.683229446411133
1773231950336726800,2.926726806640625,8.731489181518555,3.5506298542022705,-2.7063851356506348
1773231950352719600,2.9427197265625,8.67115306854248,3.6123411655426025,-2.81646466255188
1773231950368742000,2.958741943359375,8.588920593261719,3.6503167152404785,-3.0126421451568604
1773231950384733400,2.9747333984375,8.493223190307617,3.681581974029541,-3.2375147342681885
1773231950400725000,2.99072509765625,8.37955379486084,3.720273733139038,-3.4803781509399414
1773231950416716300,3.00671630859375,8.256279945373535,3.7692525386810303,-3.714428186416626
1773231950432734700,3.022734619140625,8.141443252563477,3.8139946460723877,-3.9167234897613525
1773231950448728600,3.038728515625,8.035853385925293,3.8521337509155273,-4.093472480773926
1773231950464717800,3.0547177734375,7.958429336547852,3.8701772689819336,-4.225578784942627
1773231950480740400,3.070740234375,7.90299654006958,3.8710343837738037,-4.327600002288818
1773231950496487200,3.086487060546875,7.842858791351318,3.8385658264160156,-4.4637837409973145
1773231950512724500,3.102724365234375,7.719451427459717,3.809390068054199,-4.697764873504639
1773231950528713200,3.118713134765625,7.522763729095459,3.81235671043396,-5.0044331550598145
1773231950544736800,3.13473681640625,7.278247356414795,3.8588616847991943,-5.320402145385742
1773231950560726500,3.1507265625,7.020408630371094,3.921499729156494,-5.6130290031433105
1773231950576717800,3.1667177734375,6.7571563720703125,3.9689536094665527,-5.895645618438721
1773231950592739800,3.18273974609375,6.474978923797607,4.005489826202393,-6.180703163146973
1773231950608732200,3.198732177734375,6.143343448638916,4.044653415679932,-6.48617696762085
1773231950624724200,3.21472412109375,5.774819374084473,4.070145606994629,-6.801158905029297
1773231950640714800,3.23071484375,5.40485954284668,4.036987781524658,-7.117626667022705
1773231950656737300,3.2467373046875,5.037933349609375,3.946580171585083,-7.430621147155762
1773231950672727300,3.262727294921875,4.654504299163818,3.817678928375244,-7.741531848907471
1773231950688717800,3.2787177734375,4.236709117889404,3.680495023727417,-8.0420560836792
1773231950704741600,3.29474169921875,3.8072805404663086,3.494497537612915,-8.334476470947266
1773231950720730600,3.310730712890625,3.4195826053619385,3.205293893814087,-8.614114761352539
1773231950736722400,3.326722412109375,3.1309831142425537,2.8080456256866455,-8.859018325805664
1773231950752713700,3.342713623046875,2.908406972885132,2.334148406982422,-9.069912910461426
1773231950768735500,3.358735595703125,2.7172789573669434,1.8501683473587036,-9.239246368408203
1773231950784726800,3.374726806640625,2.4812095165252686,1.3560266494750977,-9.390165328979492
1773231950800718600,3.390718505859375,2.1521260738372803,0.8418078422546387,-9.53048324584961
1773231950816740400,3.406740234375,1.728219985961914,0.30227118730545044,-9.648433685302734
1773231950832731400,3.4227314453125,1.2264223098754883,-0.2759764492511749,-9.725746154785156
1773231950848723000,3.438722900390625,0.6908329725265503,-0.8810968995094299,-9.742526054382324
1773231950864744200,3.454744140625,0.1713489443063736,-1.5177656412124634,-9.686972618103027
1773231950880735500,3.470735595703125,-0.30229851603507996,-2.177277088165283,-9.557116508483887
1773231950896725800,3.486725830078125,-0.6992970108985901,-2.8534903526306152,-9.356225967407227
1773231950912716300,3.50271630859375,-1.0361822843551636,-3.517287254333496,-9.095349311828613
1773231950928738600,3.518738525390625,-1.3198214769363403,-4.1179890632629395,-8.801741600036621
1773231950944730400,3.53473046875,-1.558539628982544,-4.621713161468506,-8.507709503173828
1773231950960719600,3.5507197265625,-1.751741647720337,-5.006936073303223,-8.248175621032715
1773231950976712200,3.566712158203125,-1.9148218631744385,-5.307671070098877,-8.020751953125
1773231950992735000,3.58273486328125,-2.0520262718200684,-5.544846534729004,-7.823954105377197
1773231951008724700,3.598724853515625,-2.176452398300171,-5.746668815612793,-7.6425957679748535
1773231951024717600,3.614717529296875,-2.2831571102142334,-5.9221296310424805,-7.475691795349121
1773231951040738300,3.63073828125,-2.3765029907226562,-6.072411060333252,-7.32451057434082
1773231951056730400,3.64673046875,-2.451624631881714,-6.1981329917907715,-7.19326639175415
1773231951072721200,3.66272119140625,-2.5124669075012207,-6.3079962730407715,-7.075811862945557
1773231951088743700,3.67874365234375,-2.5666000843048096,-6.402212142944336,-6.9709858894348145
1773231951104733700,3.694733642578125,-2.6200451850891113,-6.484839916229248,-6.874055862426758
1773231951120724500,3.710724365234375,-2.676008462905884,-6.556721210479736,-6.7837138175964355
1773231951136717000,3.726717041015625,-2.729874610900879,-6.623195648193359,-6.697123050689697
1773231951152739300,3.7427392578125,-2.7772915363311768,-6.688732147216797,-6.611954689025879
1773231951168727300,3.758727294921875,-2.81593656539917,-6.757547855377197,-6.5250630378723145
1773231951184721200,3.77472119140625,-2.8393208980560303,-6.828305721282959,-6.440722465515137
1773231951200743000,3.790742919921875,-2.8468759059906006,-6.891139507293701,-6.3700761795043945
1773231951216734000,3.80673388671875,-2.838660955429077,-6.934443950653076,-6.326602935791016
1773231951232725200,3.822725341796875,-2.818194627761841,-6.958373069763184,-6.3094563484191895
1773231951248715300,3.83871533203125,-2.762728691101074,-6.9624409675598145,-6.3294677734375
1773231951264738000,3.854738037109375,-2.66695237159729,-6.9548845291137695,-6.378663539886475
1773231951280726800,3.870726806640625,-2.527134895324707,-6.934611797332764,-6.457179069519043
1773231951296720400,3.886720458984375,-2.368427276611328,-6.891057968139648,-6.563098430633545
1773231951312742100,3.9027421875,-2.209611415863037,-6.795581817626953,-6.716255187988281
1773231951328733000,3.91873291015625,-2.059265375137329,-6.632513999938965,-6.923842430114746
1773231951344723200,3.93472314453125,-1.920228123664856,-6.382195472717285,-7.193796157836914
1773231951360747000,3.9507470703125,-1.7856086492538452,-6.054415225982666,-7.505068302154541
1773231951376737300,3.9667373046875,-1.6312705278396606,-5.652227401733398,-7.84612512588501
1773231951392728800,3.982728759765625,-1.4481548070907593,-5.198250770568848,-8.188492774963379
1773231951408720100,3.99872021484375,-1.234213948249817,-4.692389488220215,-8.522242546081543
1773231951424740600,4.01474072265625,-0.999632716178894,-4.143017292022705,-8.832132339477539
1773231951440733400,4.0307333984375,-0.7556248903274536,-3.55637788772583,-9.107776641845703
1773231951456721700,4.0467216796875,-0.519675612449646,-2.9466590881347656,-9.339032173156738
1773231951472744700,4.06274462890625,-0.3035615086555481,-2.3172621726989746,-9.524104118347168
1773231951488735700,4.07873583984375,-0.11479732394218445,-1.6783323287963867,-9.661285400390625
1773231951504727600,4.0947275390625,0.040481794625520706,-1.0529831647872925,-9.749871253967285
1773231951520719600,4.1107197265625,0.16115860641002655,-0.45646512508392334,-9.794695854187012
1773231951536741600,4.12674169921875,0.24274106323719025,0.09413637220859528,-9.803193092346191
1773231951552732400,4.142732421875,0.2874212861061096,0.5800644755363464,-9.785259246826172
1773231951568723500,4.158723388671875,0.30418798327445984,1.007880449295044,-9.749977111816406
1773231951584715500,4.174715576171875,0.3053753972053528,1.4046547412872314,-9.700725555419922
1773231951600736800,4.19073681640625,0.294761598110199,1.744388461112976,-9.645756721496582
1773231951616726800,4.206726806640625,0.27706611156463623,2.021854877471924,-9.591962814331055
1773231951632719400,4.22271923828125,0.244459867477417,2.2348992824554443,-9.545463562011719
1773231951648738300,4.23873828125,0.1937597543001175,2.38238787651062,-9.510891914367676
1773231951664731100,4.254731201171875,0.12831775844097137,2.4626832008361816,-9.49152946472168
1773231951680722000,4.270721923828125,0.050277870148420334,2.470158815383911,-9.490320205688477
1773231951696714800,4.28671484375,-0.032042987644672394,2.402587652206421,-9.507730484008789
1773231951712736800,4.30273681640625,-0.11359269917011261,2.259953737258911,-9.542016983032227
1773231951728726300,4.318726318359375,-0.19338607788085938,2.0409491062164307,-9.589970588684082
1773231951744718300,4.33471826171875,-0.27256059646606445,1.7481739521026611,-9.64572525024414
1773231951760740400,4.350740234375,-0.3553473651409149,1.38309645652771,-9.70212173461914
1773231951776730400,4.36673046875,-0.45101866126060486,0.9364480972290039,-9.751411437988281
1773231951792721700,4.3827216796875,-0.5528658032417297,0.45793405175209045,-9.780340194702148
1773231951808712400,4.39871240234375,-0.6607328057289124,-0.053892482072114944,-9.784218788146973
1773231951824736000,4.414736083984375,-0.7743483185768127,-0.5977659821510315,-9.75773811340332
1773231951840724500,4.430724365234375,-0.8855381011962891,-1.1510505676269531,-9.698521614074707
1773231951856718600,4.446718505859375,-0.9805606007575989,-1.6942260265350342,-9.609292984008789
1773231951872739600,4.462739501953125,-1.04843008518219,-2.21445631980896,-9.495652198791504
1773231951888731600,4.478731689453125,-1.0915378332138062,-2.7066071033477783,-9.362329483032227
1773231951904721400,4.494721435546875,-1.1264104843139648,-3.1736364364624023,-9.210299491882324
1773231951920743200,4.5107431640625,-1.167688250541687,-3.613070249557495,-9.041715621948242
1773231951936734200,4.526734130859375,-1.221907377243042,-4.0217437744140625,-8.860186576843262
1773231951952726500,4.5427265625,-1.2878057956695557,-4.396903038024902,-8.670594215393066
1773231951968717600,4.558717529296875,-1.363205909729004,-4.743441104888916,-8.474185943603516
1773231951984737800,4.57473779296875,-1.4480177164077759,-5.072423934936523,-8.267053604125977
1773231952000730400,4.59073046875,-1.538739562034607,-5.39296817779541,-8.04478645324707
1773231952016722000,4.606721923828125,-1.6362807750701904,-5.704041004180908,-7.807488918304443
1773231952032744200,4.622744140625,-1.741236686706543,-5.999460697174072,-7.55942964553833
1773231952048735200,4.6387353515625,-1.8522560596466064,-6.27333402633667,-7.306492805480957
1773231952064724500,4.654724365234375,-1.9666999578475952,-6.522028923034668,-7.054477214813232
1773231952080717300,4.67071728515625,-2.085052251815796,-6.743869781494141,-6.807580471038818
1773231952096738000,4.686738037109375,-2.2083003520965576,-6.938053607940674,-6.569414138793945
1773231952112729300,4.702729248046875,-2.3339650630950928,-7.106591701507568,-6.341872215270996
1773231952128722000,4.718721923828125,-2.458613157272339,-7.251139163970947,-6.127527713775635
1773231952144743200,4.7347431640625,-2.5797996520996094,-7.369558811187744,-5.933352470397949
1773231952160731600,4.750731689453125,-2.6951334476470947,-7.460790157318115,-5.765698432922363
1773231952176725800,4.766725830078125,-2.800001382827759,-7.528309345245361,-5.626276016235352
1773231952192715000,4.782715087890625,-2.892110824584961,-7.577291965484619,-5.512779235839844
1773231952208736500,4.798736572265625,-2.9676637649536133,-7.608339786529541,-5.429228782653809
1773231952224729900,4.814729736328125,-3.0240888595581055,-7.621591567993164,-5.379278659820557
1773231952240719000,4.830718994140625,-3.0545897483825684,-7.617867469787598,-5.367305755615234
1773231952256742400,4.846742431640625,-3.0476346015930176,-7.596648693084717,-5.401227951049805
1773231952272733400,4.8627333984375,-2.994478225708008,-7.557989597320557,-5.484550476074219
1773231952288725200,4.878725341796875,-2.901691198348999,-7.4931464195251465,-5.621685981750488
1773231952304716800,4.894716796875,-2.7866649627685547,-7.386728763580322,-5.817314147949219
1773231952320738600,4.910738525390625,-2.658050298690796,-7.2266645431518555,-6.072931289672852
1773231952336729300,4.926729248046875,-2.515916585922241,-7.012253284454346,-6.377216815948486
1773231952352720000,4.942719970703125,-2.359037399291992,-6.7450175285339355,-6.716402053833008
1773231952368739800,4.95873974609375,-2.191120147705078,-6.425784111022949,-7.0766282081604
1773231952384732400,4.974732421875,-2.01313853263855,-6.053478717803955,-7.448022842407227
1773231952400724200,4.99072412109375,-1.8213865756988525,-5.630151748657227,-7.820125102996826
1773231952416713000,5.006712890625,-1.613049864768982,-5.153330326080322,-8.186065673828125
1773231952432737300,5.0227373046875,-1.3922356367111206,-4.62089204788208,-8.536944389343262
1773231952448727800,5.038727783203125,-1.166078805923462,-4.040979862213135,-8.858957290649414
1773231952464720000,5.054719970703125,-0.9528715014457703,-3.4293406009674072,-9.137947082519531
1773231952480740400,5.070740234375,-0.7690837979316711,-2.811270236968994,-9.363527297973633
1773231952496730600,5.086730712890625,-0.6274814605712891,-2.2009658813476562,-9.535849571228027
1773231952512723200,5.10272314453125,-0.5253278017044067,-1.6103929281234741,-9.659247398376465
1773231952528715800,5.1187158203125,-0.4600944221019745,-1.0521718263626099,-9.739181518554688
1773231952544736000,5.134736083984375,-0.4271477162837982,-0.5319657921791077,-9.782890319824219
1773231952560726500,5.1507265625,-0.419351726770401,-0.05539192631840706,-9.797523498535156
1773231952576718300,5.16671826171875,-0.4287932217121124,0.35262131690979004,-9.790925025939941
1773231952592740400,5.182740234375,-0.44636139273643494,0.7370724678039551,-9.768721580505371
1773231952608733000,5.19873291015625,-0.4682263135910034,1.0896601676940918,-9.73466968536377
1773231952624722000,5.214721923828125,-0.49436137080192566,1.3951976299285889,-9.69429874420166
1773231952640714800,5.23071484375,-0.5294976830482483,1.6287823915481567,-9.655936241149902
1773231952656736800,5.24673681640625,-0.5784192681312561,1.7966578006744385,-9.623296737670898
1773231952672726000,5.26272607421875,-0.6435509920120239,1.885769009590149,-9.602089881896973
1773231952688717000,5.278717041015625,-0.7229304909706116,1.9101735353469849,-9.591611862182617
1773231952704740600,5.29474072265625,-0.8101431727409363,1.8604319095611572,-9.594419479370117
1773231952720731000,5.31073095703125,-0.893416166305542,1.7449904680252075,-9.608705520629883
1773231952736722000,5.326721923828125,-0.9536919593811035,1.5509977340698242,-9.636144638061523
1773231952752744700,5.34274462890625,-0.9968847036361694,1.2785001993179321,-9.671714782714844
1773231952768736500,5.358736572265625,-1.0293104648590088,0.9194016456604004,-9.7090482711792
1773231952784726800,5.374726806640625,-1.0590115785598755,0.5179182887077332,-9.735535621643066
1773231952800716500,5.390716552734375,-1.0872118473052979,0.08382365852594376,-9.74583625793457
1773231952816740400,5.406740234375,-1.1100096702575684,-0.37208470702171326,-9.73652172088623
1773231952832730400,5.42273046875,-1.1225224733352661,-0.8524632453918457,-9.704825401306152
1773231952848723000,5.438722900390625,-1.1240577697753906,-1.3393579721450806,-9.64950942993164
1773231952864713200,5.454713134765625,-1.113737940788269,-1.8199305534362793,-9.571721076965332
1773231952880734200,5.470734130859375,-1.1014357805252075,-2.2839808464050293,-9.473154067993164
1773231952896727000,5.48672705078125,-1.1001907587051392,-2.729766607284546,-9.354589462280273
1773231952912717800,5.5027177734375,-1.114119052886963,-3.166717529296875,-9.2141752243042
1773231952928738300,5.51873828125,-1.141679286956787,-3.592041492462158,-9.0534086227417
1773231952944731600,5.534731689453125,-1.172733187675476,-3.9965381622314453,-8.878218650817871
1773231952960962800,5.550962890625,-1.1980794668197632,-4.358587741851807,-8.702740669250488
1773231952976649500,5.5666494140625,-1.2149488925933838,-4.714929103851318,-8.512563705444336
1773231952992641300,5.582641357421875,-1.2208493947982788,-5.027134895324707,-8.331136703491211
1773231953008662300,5.598662353515625,-1.2286615371704102,-5.341375350952148,-8.132064819335938
1773231953024654000,5.614654052734375,-1.2390263080596924,-5.641664981842041,-7.925076961517334
1773231953040675600,5.630675537109375,-1.2520740032196045,-5.934236526489258,-7.706331253051758
1773231953056668200,5.646668212890625,-1.2677440643310547,-6.217592239379883,-7.476949691772461
1773231953072658200,5.662658203125,-1.2860431671142578,-6.492023944854736,-7.23671817779541
1773231953088678400,5.678678466796875,-1.3068947792053223,-6.756417274475098,-6.98664665222168
1773231953104670500,5.69467041015625,-1.3303630352020264,-7.011548042297363,-6.725973129272461
1773231953120662000,5.710662109375,-1.3563152551651,-7.255913734436035,-6.4561991691589355
1773231953136653800,5.72665380859375,-1.411195993423462,-7.452082633972168,-6.216541767120361
1773231953152675300,5.74267529296875,-1.4720511436462402,-7.623558521270752,-5.990392208099365
1773231953168665000,5.7586650390625,-1.5386954545974731,-7.765064239501953,-5.788486480712891
1773231953184658400,5.774658447265625,-1.608082890510559,-7.879034996032715,-5.612955570220947
1773231953200678400,5.790678466796875,-1.675847053527832,-7.968120574951172,-5.465435981750488
1773231953216669700,5.806669677734375,-1.7451485395431519,-8.035165786743164,-5.344245910644531
1773231953232661800,5.822661865234375,-1.8155864477157593,-8.077749252319336,-5.25585412979126
1773231953248652800,5.83865283203125,-1.8722435235977173,-8.092839241027832,-5.212587356567383
1773231953264674800,5.8546748046875,-1.8977093696594238,-8.079771041870117,-5.22363805770874
1773231953280664300,5.870664306640625,-1.8905034065246582,-8.036498069763184,-5.292553901672363
1773231953296656400,5.886656494140625,-1.8689403533935547,-7.952719211578369,-5.425103187561035
1773231953312679200,5.90267919921875,-1.8419623374938965,-7.816999435424805,-5.6277971267700195
1773231953328669200,5.918669189453125,-1.809714913368225,-7.62453031539917,-5.8959174156188965
1773231953344661200,5.9346611328125,-1.768621802330017,-7.377995491027832,-6.213500022888184
1773231953360651500,5.950651611328125,-1.7113982439041138,-7.084484100341797,-6.561370372772217
1773231953376671700,5.966671630859375,-1.634499192237854,-6.751095294952393,-6.9225382804870605
1773231953392664600,5.98266455078125,-1.5452736616134644,-6.3797760009765625,-7.285667896270752
1773231953408657200,5.9986572265625,-1.453264594078064,-5.96211576461792,-7.649288177490234
1773231953424678700,6.0146787109375,-1.365486741065979,-5.490893363952637,-8.00973892211914
1773231953440668400,6.03066845703125,-1.2821301221847534,-4.970162391662598,-8.356078147888184
1773231953456660500,6.046660400390625,-1.2023378610610962,-4.415048599243164,-8.673645973205566
1773231953472650800,6.062650634765625,-1.1285969018936157,-3.8418965339660645,-8.951899528503418
1773231953488673300,6.07867333984375,-1.0749760866165161,-3.266714572906494,-9.183866500854492
1773231953504665000,6.0946650390625,-1.0488601922988892,-2.705620288848877,-9.36749267578125
1773231953520655400,6.1106552734375,-1.054542064666748,-2.16634202003479,-9.50606632232666
1773231953536677600,6.126677734375,-1.0895670652389526,-1.653663158416748,-9.604615211486816
1773231953552669200,6.142669189453125,-1.1447968482971191,-1.1856342554092407,-9.667166709899902
1773231953568660200,6.15866015625,-1.2102265357971191,-0.7734957933425903,-9.700900077819824
1773231953584650800,6.174650634765625,-1.2808640003204346,-0.39467254281044006,-9.714629173278809
1773231953600671200,6.190671142578125,-1.3500638008117676,-0.0464881956577301,-9.713164329528809
1773231953616662500,6.20666259765625,-1.4127877950668335,0.2539268434047699,-9.701026916503906
1773231953632653800,6.22265380859375,-1.472845435142517,0.4909500181674957,-9.682979583740234
1773231953648675800,6.23867578125,-1.5323185920715332,0.6618256568908691,-9.663558959960938
1773231953664666600,6.25466650390625,-1.59040367603302,0.7662221193313599,-9.646446228027344
1773231953680658400,6.270658447265625,-1.6480035781860352,0.8059157133102417,-9.633535385131836
1773231953696649000,6.28664892578125,-1.7014285326004028,0.7795568108558655,-9.626413345336914
1773231953712671000,6.3026708984375,-1.74824857711792,0.6813998222351074,-9.62547492980957
1773231953728662300,6.318662353515625,-1.789106845855713,0.5118345618247986,-9.628474235534668
1773231953744652800,6.33465283203125,-1.8224626779556274,0.2745927572250366,-9.631906509399414
1773231953760673500,6.350673583984375,-1.843261480331421,-0.026758097112178802,-9.631827354431152
1773231953776666000,6.366666015625,-1.8453283309936523,-0.35966962575912476,-9.624750137329102
1773231953792658000,6.382657958984375,-1.829221487045288,-0.7074519395828247,-9.608531951904297
1773231953808647400,6.3986474609375,-1.796312689781189,-1.0767405033111572,-9.580411911010742
1773231953824668700,6.414668701171875,-1.746705174446106,-1.465788722038269,-9.53786563873291
1773231953840661500,6.43066162109375,-1.6801576614379883,-1.8543518781661987,-9.482028007507324
1773231953856653800,6.44665380859375,-1.594936490058899,-2.224250555038452,-9.416966438293457
1773231953872675000,6.462675048828125,-1.4910401105880737,-2.575444221496582,-9.344210624694824
1773231953888665900,6.478665771484375,-1.378042221069336,-2.919893741607666,-9.259893417358398
1773231953904657700,6.49465771484375,-1.2690249681472778,-3.2700042724609375,-9.1578950881958
1773231953920678000,6.510677978515625,-1.1756923198699951,-3.627103090286255,-9.035057067871094
1773231953936668400,6.52666845703125,-1.1059097051620483,-3.985196590423584,-8.891881942749023
1773231953952660700,6.54266064453125,-1.0652409791946411,-4.336067199707031,-8.731219291687012
1773231953968651500,6.558651611328125,-1.0596952438354492,-4.672718048095703,-8.55646800994873
1773231953984672500,6.574672607421875,-1.0860644578933716,-4.9970011711120605,-8.367844581604004
1773231954000664600,6.59066455078125,-1.1328948736190796,-5.314333915710449,-8.163625717163086
1773231954016547000,6.606547119140625,-1.1871387958526611,-5.629450798034668,-7.941685676574707
1773231954032678700,6.6226787109375,-1.2434017658233643,-5.942226409912109,-7.701578617095947
1773231954048670500,6.63867041015625,-1.302300214767456,-6.250241279602051,-7.443716526031494
1773231954064660500,6.654660400390625,-1.3692439794540405,-6.549132823944092,-7.1696882247924805
1773231954080651300,6.6706513671875,-1.4474302530288696,-6.836713790893555,-6.880021095275879
1773231954096670700,6.686670654296875,-1.5336461067199707,-7.10408878326416,-6.584089756011963
1773231954112664800,6.702664794921875,-1.6225743293762207,-7.347631454467773,-6.288874626159668
1773231954128654300,6.718654296875,-1.709678053855896,-7.564947128295898,-6.00158166885376
1773231954144676600,6.734676513671875,-1.7954695224761963,-7.752826690673828,-5.730653285980225
1773231954160668700,6.750668701171875,-1.8820137977600098,-7.908526420593262,-5.484854698181152
1773231954176658400,6.766658447265625,-1.9667928218841553,-8.033466339111328,-5.26930046081543
1773231954192650000,6.78264990234375,-2.041865825653076,-8.132218360900879,-5.0860795974731445
1773231954208673300,6.79867333984375,-2.0995635986328125,-8.2099609375,-4.93546199798584
1773231954224662000,6.814662109375,-2.1434874534606934,-8.268741607666016,-4.81702995300293
1773231954240654000,6.830654052734375,-2.17445707321167,-8.30423355102539,-4.741501808166504
1773231954256675000,6.846675048828125,-2.179157257080078,-8.313444137573242,-4.723171234130859
1773231954272667600,6.862667724609375,-2.138974189758301,-8.298216819763184,-4.7680983543396
1773231954288659200,6.8786591796875,-2.0584757328033447,-8.256784439086914,-4.8742780685424805
1773231954304650200,6.894650146484375,-1.967563271522522,-8.177923202514648,-5.0418925285339355
1773231954320670500,6.91067041015625,-1.8902333974838257,-8.050809860229492,-5.270852565765381
1773231954336661500,6.92666162109375,-1.8300416469573975,-7.873882293701172,-5.551875591278076
1773231954352653800,6.94265380859375,-1.7838813066482544,-7.6510162353515625,-5.869421005249023
1773231954368675600,6.958675537109375,-1.747523546218872,-7.383806228637695,-6.2125630378723145
1773231954384666600,6.97466650390625,-1.7137413024902344,-7.074783802032471,-6.571218490600586
1773231954400659000,6.990658935546875,-1.6758955717086792,-6.724445343017578,-6.938560962677002
1773231954416649700,7.006649658203125,-1.6317524909973145,-6.329296112060547,-7.310801982879639
1773231954432671200,7.022671142578125,-1.5815558433532715,-5.881130695343018,-7.6864399909973145
1773231954448662500,7.03866259765625,-1.5241037607192993,-5.3807830810546875,-8.05572509765625
1773231954464653800,7.05465380859375,-1.4645158052444458,-4.839563846588135,-8.402631759643555
1773231954480673500,7.070673583984375,-1.4013844728469849,-4.28031587600708,-8.711222648620605
1773231954496665000,7.0866650390625,-1.3409138917922974,-3.7155256271362305,-8.975922584533691
1773231954512658000,7.102657958984375,-1.2888060808181763,-3.1583058834075928,-9.19426441192627
1773231954528680000,7.118679931640625,-1.2534021139144897,-2.61504864692688,-9.36807918548584
1773231954544670500,7.13467041015625,-1.2376292943954468,-2.095501184463501,-9.499871253967285
1773231954560660200,7.15066015625,-1.2378047704696655,-1.6096266508102417,-9.59412956237793
1773231954576651800,7.16665185546875,-1.2541308403015137,-1.1748769283294678,-9.654906272888184
1773231954592674800,7.1826748046875,-1.2833064794540405,-0.7969045639038086,-9.689606666564941
1773231954608662500,7.19866259765625,-1.3200360536575317,-0.4550638794898987,-9.706740379333496
1773231954624658000,7.214657958984375,-1.3579224348068237,-0.14655864238739014,-9.71107292175293
1773231954640648200,7.230648193359375,-1.3955960273742676,0.11752265691757202,-9.706127166748047
1773231954656669700,7.246669677734375,-1.431710124015808,0.32514381408691406,-9.696125984191895
1773231954672661800,7.262661865234375,-1.4640388488769531,0.4747248589992523,-9.685125350952148
1773231954688652300,7.27865234375,-1.496300220489502,0.5630871057510376,-9.675455093383789
1773231954704672000,7.294672119140625,-1.533293604850769,0.5800365805625916,-9.668660163879395
1773231954720662500,7.31066259765625,-1.5744298696517944,0.5119367837905884,-9.665892601013184
1773231954736655000,7.326655029296875,-1.6140185594558716,0.3556191027164459,-9.666379928588867
1773231954752676900,7.3426767578125,-1.6423158645629883,0.1170090064406395,-9.66744613647461
1773231954768668200,7.358668212890625,-1.6525208950042725,-0.1938072293996811,-9.664472579956055
1773231954784660700,7.37466064453125,-1.6401287317276,-0.559109091758728,-9.652344703674316
1773231954800650200,7.390650146484375,-1.6110296249389648,-0.9597301483154297,-9.625689506530762
1773231954816673000,7.406673095703125,-1.565364122390747,-1.352658748626709,-9.585944175720215
1773231954832664000,7.4226640625,-1.5069974660873413,-1.7220960855484009,-9.535917282104492
1773231954848654300,7.438654296875,-1.4401038885116577,-2.0817575454711914,-9.474321365356445
1773231954864675800,7.45467578125,-1.3674293756484985,-2.437405824661255,-9.399978637695312
1773231954880668700,7.470668701171875,-1.2911261320114136,-2.797424077987671,-9.310091018676758
1773231954896659000,7.486658935546875,-1.2162067890167236,-3.1654255390167236,-9.201701164245605
1773231954912650000,7.50264990234375,-1.1473664045333862,-3.544325590133667,-9.071476936340332
1773231954928671000,7.5186708984375,-1.0886785984039307,-3.9245853424072266,-8.920919418334961
1773231954944663600,7.53466357421875,-1.0418554544448853,-4.287838935852051,-8.757819175720215
1773231954960654000,7.550654052734375,-1.0125552415847778,-4.633284091949463,-8.583578109741211
1773231954976675300,7.56667529296875,-1.0126713514328003,-4.9610443115234375,-8.39838981628418
1773231954992666000,7.582666015625,-1.0119684934616089,-5.270761489868164,-8.207642555236816
1773231955008658200,7.598658203125,-1.0226858854293823,-5.580166816711426,-7.999139308929443
1773231955024647000,7.61464697265625,-1.0427850484848022,-5.897090435028076,-7.765777111053467
1773231955040670700,7.630670654296875,-1.0723429918289185,-6.222517490386963,-7.503383159637451
1773231955056661800,7.646661865234375,-1.113424301147461,-6.548622131347656,-7.21430778503418
1773231955072654300,7.662654296875,-1.1648691892623901,-6.868552207946777,-6.901918888092041
1773231955088674300,7.67867431640625,-1.2246125936508179,-7.172457218170166,-6.574693202972412
1773231955104665600,7.69466552734375,-1.2861478328704834,-7.451057434082031,-6.244835376739502
1773231955120658200,7.710658203125,-1.3422242403030396,-7.702646255493164,-5.919295310974121
1773231955136647200,7.726647216796875,-1.3947221040725708,-7.927456855773926,-5.6018385887146
1773231955152671000,7.7426708984375,-1.4490914344787598,-8.121155738830566,-5.302580833435059
1773231955168662000,7.758662109375,-1.5041863918304443,-8.278956413269043,-5.036534309387207
1773231955184651800,7.77465185546875,-1.5527540445327759,-8.404308319091797,-4.809046745300293
1773231955200673500,7.790673583984375,-1.5843164920806885,-8.502357482910156,-4.622793674468994
1773231955216665900,7.806665771484375,-1.5961674451828003,-8.57811450958252,-4.476452827453613
1773231955232656600,7.82265673828125,-1.5961658954620361,-8.632793426513672,-4.370070934295654
1773231955248648000,7.83864794921875,-1.5854568481445312,-8.662900924682617,-4.314030170440674
1773231955264668400,7.85466845703125,-1.5530465841293335,-8.667471885681152,-4.3166422843933105
1773231955280659500,7.870659423828125,-1.4943434000015259,-8.64468002319336,-4.382559776306152
1773231955296652500,7.886652587890625,-1.4343278408050537,-8.585770606994629,-4.51637601852417
1773231955312673300,7.90267333984375,-1.3991715908050537,-8.479365348815918,-4.7236714363098145
1773231955328664600,7.91866455078125,-1.3928773403167725,-8.318568229675293,-5.003172397613525
1773231955344656400,7.934656494140625,-1.4098381996154785,-8.101924896240234,-5.342432022094727
1773231955360646100,7.950646240234375,-1.4392303228378296,-7.831094741821289,-5.724766731262207
1773231955376668700,7.966668701171875,-1.464154601097107,-7.510913372039795,-6.132928848266602
1773231955392660200,7.98266015625,-1.4699925184249878,-7.148471355438232,-6.5504865646362305
1773231955408651300,7.9986513671875,-1.4531933069229126,-6.7486138343811035,-6.96525764465332
1773231955424671700,8.014671630859375,-1.4184032678604126,-6.312259674072266,-7.369797706604004
1773231955440664000,8.0306640625,-1.3711154460906982,-5.844240665435791,-7.754695892333984
1773231955456654300,8.046654296875,-1.31511390209198,-5.349959850311279,-8.11287784576416
1773231955472645600,8.062645751953125,-1.258760690689087,-4.836367130279541,-8.437740325927734
1773231955488667000,8.0786669921875,-1.2152268886566162,-4.30817985534668,-8.725434303283691
1773231955504659200,8.0946591796875,-1.1958061456680298,-3.776573896408081,-8.97095012664795
1773231955520651300,8.1106513671875,-1.2046031951904297,-3.2471933364868164,-9.174696922302246
1773231955536672500,8.126672607421876,-1.2367910146713257,-2.7276926040649414,-9.338118553161621
1773231955552663800,8.142663818359376,-1.2835190296173096,-2.2298080921173096,-9.463135719299316
1773231955568654800,8.15865478515625,-1.3341070413589478,-1.7648957967758179,-9.553832054138184
1773231955584646400,8.174646484375,-1.3838690519332886,-1.3518385887145996,-9.613938331604004
1773231955600666400,8.190666259765624,-1.4316084384918213,-0.9948856234550476,-9.650446891784668
1773231955616659000,8.206658935546875,-1.4805045127868652,-0.6781204342842102,-9.670506477355957
1773231955632650800,8.222650634765625,-1.5309706926345825,-0.3991717994213104,-9.678179740905762
1773231955648671000,8.2386708984375,-1.5811103582382202,-0.1641816794872284,-9.676959037780762
1773231955664661500,8.25466162109375,-1.6264373064041138,0.015590130351483822,-9.67082691192627
1773231955680652800,8.27065283203125,-1.667953610420227,0.13432125747203827,-9.662833213806152
1773231955696674600,8.286674560546874,-1.703739881515503,0.1892191618680954,-9.655665397644043
1773231955712667000,8.3026669921875,-1.7265416383743286,0.17432913184165955,-9.651893615722656
1773231955728658700,8.31865869140625,-1.724869728088379,0.08745652437210083,-9.653371810913086
1773231955744648000,8.33464794921875,-1.6880158185958862,-0.07421837747097015,-9.659993171691895
1773231955760670500,8.35067041015625,-1.6195248365402222,-0.3150137662887573,-9.66686725616455
1773231955776661800,8.366661865234375,-1.5333378314971924,-0.6282165050506592,-9.665640830993652
1773231955792653800,8.38265380859375,-1.4398194551467896,-1.0038220882415771,-9.648297309875488
1773231955808642300,8.398642333984375,-1.3472082614898682,-1.4117374420166016,-9.610538482666016
1773231955824664600,8.41466455078125,-1.2605844736099243,-1.8215616941452026,-9.553178787231445
1773231955840656400,8.430656494140624,-1.1835695505142212,-2.215060234069824,-9.479612350463867
1773231955856648700,8.446648681640625,-1.1124173402786255,-2.591639280319214,-9.392354011535645
1773231955872670200,8.462670166015625,-1.0441279411315918,-2.956456422805786,-9.291909217834473
1773231955888660200,8.47866015625,-0.980392575263977,-3.3176560401916504,-9.176185607910156
1773231955904651000,8.494651123046875,-0.924943208694458,-3.6849429607391357,-9.040801048278809
1773231955920673300,8.51067333984375,-0.888581395149231,-4.059110164642334,-8.882817268371582
1773231955936664800,8.526664794921874,-0.8737694025039673,-4.429316520690918,-8.705636024475098
1773231955952656000,8.54265576171875,-0.874821126461029,-4.780145168304443,-8.517938613891602
1773231955968647200,8.558647216796874,-0.8868410587310791,-5.104978561401367,-8.3260498046875
1773231955984668700,8.574668701171875,-0.9055306315422058,-5.406335353851318,-8.131540298461914
1773231956000660200,8.59066015625,-0.9328932762145996,-5.6929473876953125,-7.9303507804870605
1773231956016651800,8.60665185546875,-0.9651936888694763,-5.972723007202148,-7.717861652374268
1773231956032674000,8.622674072265625,-0.9963321685791016,-6.24822473526001,-7.492488861083984
1773231956048664300,8.638664306640624,-1.0264384746551514,-6.489209175109863,-7.280589580535889
1773231956064656100,8.65465625,-1.0541659593582153,-6.719347953796387,-7.064666271209717
1773231956080645600,8.670645751953124,-1.083559274673462,-6.943202972412109,-6.840193271636963
1773231956096669000,8.6866689453125,-1.1142826080322266,-7.171970367431641,-6.5948166847229
1773231956112659500,8.702659423828125,-1.1403977870941162,-7.404250144958496,-6.328268527984619
1773231956128651500,8.718651611328125,-1.1617196798324585,-7.626033306121826,-6.05511474609375
1773231956144670500,8.73467041015625,-1.1830945014953613,-7.831161022186279,-5.783043384552002
1773231956160662800,8.750662841796874,-1.2124600410461426,-8.01705551147461,-5.516081809997559
1773231956176655000,8.766655029296874,-1.253226399421692,-8.180327415466309,-5.261374473571777
1773231956192646400,8.782646484375,-1.30228853225708,-8.319611549377441,-5.025782585144043
1773231956208666600,8.79866650390625,-1.3539128303527832,-8.433808326721191,-4.81749153137207
1773231956224658200,8.814658203125,-1.4088865518569946,-8.521724700927734,-4.6438798904418945
1773231956240650500,8.830650390625,-1.473136305809021,-8.580401420593262,-4.5140862464904785
1773231956256672500,8.846672607421874,-1.5389078855514526,-8.605782508850098,-4.443274021148682
1773231956272662500,8.86266259765625,-1.583204984664917,-8.599326133728027,-4.440205097198486
1773231956288652800,8.87865283203125,-1.5856544971466064,-8.566607475280762,-4.5021491050720215
1773231956304645400,8.894645263671874,-1.555801510810852,-8.506821632385254,-4.624269485473633
1773231956320666400,8.910666259765625,-1.5154826641082764,-8.410322189331055,-4.8104248046875
1773231956336659000,8.926658935546875,-1.4786498546600342,-8.269455909729004,-5.0596537590026855
1773231956352649000,8.94264892578125,-1.4506748914718628,-8.08049488067627,-5.363910675048828
1773231956368670500,8.95867041015625,-1.4343793392181396,-7.8456196784973145,-5.706068515777588
1773231956384662000,8.974662109375,-1.4313009977340698,-7.568521022796631,-6.0695343017578125
1773231956400653600,8.990653564453124,-1.4347478151321411,-7.25234317779541,-6.443246364593506
1773231956416644000,9.00664404296875,-1.4361950159072876,-6.8978400230407715,-6.82111120223999
1773231956432664800,9.022664794921875,-1.428836464881897,-6.502516746520996,-7.200423717498779
1773231956448656400,9.038656494140625,-1.4080437421798706,-6.06502628326416,-7.576493263244629
1773231956464647700,9.054647705078125,-1.3687727451324463,-5.590023040771484,-7.940309047698975
1773231956480669200,9.070669189453126,-1.3135120868682861,-5.08542537689209,-8.281518936157227
1773231956496662000,9.086662109375,-1.2544944286346436,-4.5642266273498535,-8.58862590789795
1773231956512653000,9.102653076171874,-1.2056516408920288,-4.036322593688965,-8.855783462524414
1773231956528672500,9.118672607421875,-1.1752089262008667,-3.5093870162963867,-9.081491470336914
1773231956544665000,9.1346650390625,-1.1660873889923096,-2.991140604019165,-9.266268730163574
1773231956560656600,9.15065673828125,-1.1740058660507202,-2.490122079849243,-9.412301063537598
1773231956576647700,9.166647705078125,-1.1916993856430054,-2.0139219760894775,-9.523358345031738
1773231956592669200,9.182669189453126,-1.2121014595031738,-1.5732661485671997,-9.603438377380371
1773231956608661500,9.19866162109375,-1.2300138473510742,-1.1856637001037598,-9.656689643859863
1773231956624652000,9.214652099609374,-1.2435911893844604,-0.8545820713043213,-9.68986988067627
1773231956640641300,9.230641357421876,-1.256182074546814,-0.5737146139144897,-9.7089262008667
1773231956656663300,9.246663330078125,-1.2736973762512207,-0.3306112587451935,-9.717963218688965
1773231956672656100,9.26265625,-1.2952452898025513,-0.13129208981990814,-9.719852447509766
1773231956688647400,9.2786474609375,-1.3208320140838623,0.01599409058690071,-9.717281341552734
1773231956704669200,9.294669189453124,-1.3477071523666382,0.10325499624013901,-9.713054656982422
1773231956720660000,9.310659912109376,-1.373095989227295,0.122923843562603,-9.709269523620605
1773231956736651800,9.32665185546875,-1.3958669900894165,0.07001010328531265,-9.706548690795898
1773231956752641500,9.3426416015625,-1.4113945960998535,-0.05422845110297203,-9.704402923583984
1773231956768664300,9.358664306640625,-1.4128012657165527,-0.24445746839046478,-9.70127010345459
1773231956784654000,9.374654052734375,-1.4008605480194092,-0.49948716163635254,-9.693219184875488
1773231956800646000,9.39064599609375,-1.3798139095306396,-0.8135495781898499,-9.674949645996094
1773231956816668400,9.40666845703125,-1.358490228652954,-1.1792296171188354,-9.64024543762207
1773231956832658400,9.422658447265626,-1.337241768836975,-1.560238003730774,-9.588942527770996
1773231956848649500,9.4386494140625,-1.313867449760437,-1.9350179433822632,-9.523646354675293
1773231956864672500,9.454672607421875,-1.2853741645812988,-2.3001182079315186,-9.446039199829102
1773231956880664000,9.4706640625,-1.2476650476455688,-2.665088653564453,-9.354732513427734
1773231956896653800,9.48665380859375,-1.199327826499939,-3.031294345855713,-9.248961448669434
1773231956912645400,9.502645263671875,-1.144822359085083,-3.406031847000122,-9.12462043762207
1773231956928667000,9.5186669921875,-1.0936788320541382,-3.792633533477783,-8.977203369140625
1773231956944658700,9.53465869140625,-1.0537770986557007,-4.183789253234863,-8.80657958984375
1773231956960648400,9.5506484375,-1.0296010971069336,-4.569257736206055,-8.61581039428711
1773231956976670200,9.566670166015625,-1.0213849544525146,-4.93900728225708,-8.410313606262207
1773231956992663000,9.5826630859375,-1.0316098928451538,-5.292208671569824,-8.191381454467773
1773231957008651500,9.598651611328124,-1.0594743490219116,-5.631636619567871,-7.958178520202637
1773231957024644600,9.61464453125,-1.097028374671936,-5.965433120727539,-7.705877304077148
1773231957040664800,9.630664794921875,-1.1406043767929077,-6.298486709594727,-7.429567813873291
1773231957056656000,9.64665576171875,-1.1903408765792847,-6.623302936553955,-7.133396148681641
1773231957072649500,9.6626494140625,-1.2476683855056763,-6.931478023529053,-6.824101448059082
1773231957088670500,9.67867041015625,-1.3141562938690186,-7.217512607574463,-6.507758617401123
1773231957104661800,9.694661865234375,-1.3887609243392944,-7.477380752563477,-6.191164016723633
1773231957120651500,9.710651611328124,-1.4661340713500977,-7.70949649810791,-5.880858421325684
1773231957136644400,9.726644287109375,-1.5415873527526855,-7.915236473083496,-5.5805864334106445
1773231957152666000,9.742666015625,-1.6159677505493164,-8.096465110778809,-5.292098045349121
1773231957168656100,9.75865625,-1.6905776262283325,-8.251814842224121,-5.0219407081604
1773231957184648400,9.7746484375,-1.7643951177597046,-8.383085250854492,-4.772964000701904
1773231957200668200,9.790668212890624,-1.8322432041168213,-8.49388313293457,-4.546120643615723
1773231957216661000,9.806660888671875,-1.888445258140564,-8.58829116821289,-4.341132640838623
1773231957232652300,9.82265234375,-1.9320495128631592,-8.670051574707031,-4.155453681945801
1773231957248641800,9.838641845703124,-1.970435619354248,-8.737382888793945,-3.993231773376465
1773231957264663300,9.854663330078125,-2.0019137859344482,-8.787761688232422,-3.8649682998657227
1773231957280655000,9.870655029296875,-2.0081658363342285,-8.822973251342773,-3.7805845737457275
1773231957296648200,9.886648193359376,-1.9784728288650513,-8.840224266052246,-3.755862236022949
1773231957312669400,9.90266943359375,-1.9308617115020752,-8.824685096740723,-3.8166921138763428
1773231957328661000,9.918660888671875,-1.8866572380065918,-8.759535789489746,-3.9851505756378174
1773231957344649500,9.9346494140625,-1.853355884552002,-8.638916015625,-4.254951477050781
1773231957360642800,9.950642822265625,-1.8201894760131836,-8.466153144836426,-4.6023454666137695
1773231957376665300,9.966665283203126,-1.7732757329940796,-8.247314453125,-5.00076961517334
1773231957392655400,9.9826552734375,-1.7106118202209473,-7.986558437347412,-5.427624702453613
1773231957408646400,9.998646484375,-1.6354715824127197,-7.680904865264893,-5.873615741729736
1773231957424667100,10.014667236328124,-1.5547457933425903,-7.3235273361206055,-6.333963871002197
1773231957440659200,10.0306591796875,-1.476342797279358,-6.901735305786133,-6.808587074279785
1773231957456650000,10.04664990234375,-1.4004186391830444,-6.411609649658203,-7.287006378173828
1773231957472672300,10.06267236328125,-1.3285832405090332,-5.864138603210449,-7.747073650360107
1773231957488662000,10.078662109375,-1.2552570104599,-5.289269924163818,-8.162005424499512
1773231957504653600,10.094653564453125,-1.1851794719696045,-4.703979969024658,-8.522811889648438
1773231957520643300,10.110643310546875,-1.1319788694381714,-4.120976448059082,-8.826469421386719
1773231957536666600,10.12666650390625,-1.1019227504730225,-3.5520262718200684,-9.074097633361816
1773231957552658200,10.142658203125,-1.0970370769500732,-3.003361225128174,-9.270746231079102
1773231957568649000,10.15864892578125,-1.1131103038787842,-2.48116397857666,-9.422059059143066
1773231957584638000,10.174637939453126,-1.1413229703903198,-1.9885817766189575,-9.5348482131958
1773231957600661000,10.190660888671875,-1.175123929977417,-1.5340824127197266,-9.614367485046387
1773231957616651500,10.206651611328125,-1.2096331119537354,-1.1396795511245728,-9.664798736572266
1773231957632642600,10.222642578125,-1.2436308860778809,-0.8088560700416565,-9.693788528442383
1773231957648666000,10.238666015625,-1.2804968357086182,-0.5225008130073547,-9.708641052246094
1773231957664656100,10.25465625,-1.3186477422714233,-0.28316861391067505,-9.713465690612793
1773231957680649700,10.270649658203125,-1.3529024124145508,-0.09845173358917236,-9.712381362915039
1773231957696639000,10.286638916015624,-1.3811815977096558,0.01654149405658245,-9.70888614654541
1773231957712662300,10.302662353515625,-1.3974361419677734,0.05553949996829033,-9.706413269042969
1773231957728651000,10.318651123046875,-1.3952358961105347,0.021406453102827072,-9.706869125366211
1773231957744644000,10.33464404296875,-1.3749395608901978,-0.08137448877096176,-9.709444046020508
1773231957760664600,10.35066455078125,-1.3357638120651245,-0.25517091155052185,-9.71190071105957
1773231957776655000,10.366655029296876,-1.2839616537094116,-0.5004331469535828,-9.709345817565918
1773231957792648000,10.38264794921875,-1.2264422178268433,-0.8181085586547852,-9.69520092010498
1773231957808669700,10.398669677734375,-1.170082449913025,-1.1824957132339478,-9.66452407836914
1773231957824659700,10.41465966796875,-1.1220331192016602,-1.576833724975586,-9.613794326782227
1773231957840649500,10.4306494140625,-1.081354022026062,-1.9813971519470215,-9.543330192565918
1773231957856643000,10.44664306640625,-1.0436385869979858,-2.3895833492279053,-9.453628540039062
1773231957872665600,10.46266552734375,-1.0033022165298462,-2.7912185192108154,-9.347346305847168
1773231957888654800,10.47865478515625,-0.9619852900505066,-3.181710720062256,-9.226140975952148
1773231957904648200,10.494648193359374,-0.9250307679176331,-3.5674595832824707,-9.087790489196777
1773231957920637400,10.510637451171876,-0.8985456228256226,-3.955763101577759,-8.928322792053223
1773231957936658200,10.526658203125,-0.8883618116378784,-4.350063323974609,-8.744035720825195
1773231957952651800,10.54265185546875,-0.891647219657898,-4.745167255401611,-8.535734176635742
1773231957968642600,10.558642578125,-0.9053351283073425,-5.129142761230469,-8.309191703796387
1773231957984665000,10.5746650390625,-0.9289815425872803,-5.493037700653076,-8.070558547973633
1773231958000655000,10.590655029296874,-0.9612861275672913,-5.832306861877441,-7.82499361038208
1773231958016644600,10.60664453125,-1.0042729377746582,-6.153539657592773,-7.569398880004883
1773231958032637700,10.6226376953125,-1.0572484731674194,-6.465467929840088,-7.29728364944458
1773231958048660200,10.63866015625,-1.114999771118164,-6.77031135559082,-7.006430625915527
1773231958064648400,10.6546484375,-1.1751868724822998,-7.061405181884766,-6.702678680419922
1773231958080641000,10.67064111328125,-1.2402201890945435,-7.332214832305908,-6.393036365509033
1773231958096633300,10.68663330078125,-1.3147542476654053,-7.579075813293457,-6.082718372344971
1773231958112653600,10.702653564453126,-1.3970932960510254,-7.798862457275391,-5.778951168060303
1773231958128646100,10.718646240234374,-1.4827280044555664,-7.991907119750977,-5.4864702224731445
1773231958144668000,10.73466796875,-1.5700682401657104,-8.15894889831543,-5.209304332733154
1773231958160659200,10.7506591796875,-1.6591893434524536,-8.300651550292969,-4.951433181762695
1773231958176648700,10.766648681640625,-1.7486510276794434,-8.419623374938965,-4.71408224105835
1773231958192640300,10.78264013671875,-1.8346649408340454,-8.51660442352295,-4.5024285316467285
1773231958208663000,10.7986630859375,-1.9109078645706177,-8.594233512878418,-4.319489479064941
1773231958224652800,10.81465283203125,-1.9735294580459595,-8.65410041809082,-4.169189929962158
1773231958240644600,10.83064453125,-2.0276503562927246,-8.698630332946777,-4.0488128662109375
1773231958256667100,10.846667236328125,-2.075901508331299,-8.726713180541992,-3.963014841079712
1773231958272656400,10.862656494140625,-2.10848331451416,-8.738822937011719,-3.9188852310180664
1773231958288648000,10.87864794921875,-2.111891031265259,-8.737895965576172,-3.919114112854004
1773231958304639000,10.894638916015625,-2.0879414081573486,-8.717803001403809,-3.9762845039367676
1773231958320661800,10.910661865234376,-2.059288263320923,-8.663525581359863,-4.1076836585998535
1773231958336653300,10.9266533203125,-2.04057240486145,-8.562268257141113,-4.323657035827637
1773231958352643800,10.942643798828126,-2.03212833404541,-8.409751892089844,-4.617027282714844
1773231958368664800,10.958664794921875,-2.0232298374176025,-8.208490371704102,-4.969671249389648
1773231958384657400,10.974657470703125,-1.9989866018295288,-7.965548038482666,-5.359525203704834
1773231958400648700,10.990648681640625,-1.95133638381958,-7.686066150665283,-5.769496440887451
1773231958416639000,11.006638916015625,-1.8809624910354614,-7.371941089630127,-6.18763542175293
1773231958432661800,11.022661865234374,-1.7974117994308472,-7.0180277824401855,-6.609612464904785
1773231958448652500,11.038652587890626,-1.7080062627792358,-6.625184059143066,-7.025670528411865
1773231958464643600,11.0546435546875,-1.617417573928833,-6.196341514587402,-7.4269585609436035
1773231958480666400,11.070666259765625,-1.5328290462493896,-5.737318515777588,-7.804101943969727
1773231958496657700,11.08665771484375,-1.4647883176803589,-5.256883144378662,-8.148004531860352
1773231958512647200,11.102647216796875,-1.4228544235229492,-4.767594337463379,-8.45079517364502
1773231958528637700,11.1186376953125,-1.4087746143341064,-4.278952121734619,-8.710700988769531
1773231958544659500,11.134659423828126,-1.416439175605774,-3.7975621223449707,-8.929871559143066
1773231958560650800,11.150650634765626,-1.4402371644973755,-3.328610897064209,-9.111337661743164
1773231958576641500,11.1666416015625,-1.4736659526824951,-2.873777389526367,-9.25959587097168
1773231958592664800,11.182664794921875,-1.5080958604812622,-2.445586919784546,-9.376307487487793
1773231958608656400,11.198656494140625,-1.536695122718811,-2.0532848834991455,-9.465356826782227
1773231958624646100,11.214646240234375,-1.556868553161621,-1.7041677236557007,-9.5311279296875
1773231958640668700,11.230668701171876,-1.5684301853179932,-1.4025471210479736,-9.57827091217041
1773231958656660700,11.24666064453125,-1.5783724784851074,-1.1435432434082031,-9.611006736755371
1773231958672651800,11.26265185546875,-1.5939706563949585,-0.9331104755401611,-9.631146430969238
1773231958688641500,11.2786416015625,-1.6183981895446777,-0.7752171754837036,-9.641068458557129
1773231958704663300,11.294663330078125,-1.6502597332000732,-0.6728340983390808,-9.643357276916504
1773231958720654800,11.31065478515625,-1.6823586225509644,-0.6277250647544861,-9.640850067138672
1773231958736645400,11.326645263671875,-1.7037056684494019,-0.646054744720459,-9.635890007019043
1773231958752667400,11.34266748046875,-1.7076373100280762,-0.7332649230957031,-9.628951072692871
1773231958768659000,11.358658935546876,-1.6908472776412964,-0.8833306431770325,-9.619311332702637
1773231958784650800,11.374650634765626,-1.66106116771698,-1.0891077518463135,-9.603391647338867
1773231958800641300,11.390641357421876,-1.6260011196136475,-1.3433376550674438,-9.57715892791748
1773231958816662800,11.406662841796875,-1.590179204940796,-1.639360785484314,-9.536993980407715
1773231958832653600,11.422653564453125,-1.5548356771469116,-1.9686897993087769,-9.480355262756348
1773231958848645600,11.438645751953125,-1.5186045169830322,-2.3083336353302,-9.409350395202637
1773231958864666000,11.454666015625,-1.4835443496704102,-2.6407618522644043,-9.327157020568848
1773231958880659200,11.4706591796875,-1.4470982551574707,-2.960761785507202,-9.23635196685791
1773231958896647400,11.4866474609375,-1.4011188745498657,-3.2806782722473145,-9.13479232788086
1773231958912640500,11.502640625,-1.3435728549957275,-3.6097121238708496,-9.018603324890137
1773231958928663000,11.5186630859375,-1.2788801193237305,-3.956266403198242,-8.881600379943848
1773231958944653600,11.534653564453125,-1.2130606174468994,-4.316143989562988,-8.721799850463867
1773231958960644000,11.55064404296875,-1.1505497694015503,-4.681909561157227,-8.539693832397461
1773231958976635000,11.566634765625,-1.0958880186080933,-5.036525249481201,-8.3428316116333
1773231958992658000,11.582657958984376,-1.05181884765625,-5.368504524230957,-8.138995170593262
1773231959008647400,11.5986474609375,-1.0428286790847778,-5.663110256195068,-7.938014507293701
1773231959024639500,11.614639404296875,-1.0556161403656006,-5.9306864738464355,-7.738412857055664
1773231959040735000,11.63073486328125,-1.0881158113479614,-6.182943820953369,-7.533764839172363
1773231959056726800,11.646726806640626,-1.1017732620239258,-6.477088928222656,-7.280372142791748
1773231959072718600,11.662718505859376,-1.1287205219268799,-6.76955509185791,-7.004962921142578
1773231959088738800,11.67873876953125,-1.1648757457733154,-7.057738304138184,-6.708338260650635
1773231959104730400,11.69473046875,-1.2076631784439087,-7.335515975952148,-6.395479679107666
1773231959120722400,11.710722412109375,-1.253596305847168,-7.592745304107666,-6.078577518463135
1773231959136714500,11.726714599609375,-1.300256371498108,-7.828830242156982,-5.761003017425537
1773231959152734200,11.742734130859375,-1.3506889343261719,-8.04215145111084,-5.447001934051514
1773231959168725000,11.75872509765625,-1.4089874029159546,-8.230652809143066,-5.142133712768555
1773231959184718300,11.77471826171875,-1.4745151996612549,-8.395267486572266,-4.849298477172852
1773231959200739000,11.790739013671875,-1.5402722358703613,-8.5361909866333,-4.575088977813721
1773231959216728000,11.80672802734375,-1.6030226945877075,-8.651914596557617,-4.329563140869141
1773231959232722200,11.82272216796875,-1.6646668910980225,-8.741183280944824,-4.122011661529541
1773231959248711400,11.83871142578125,-1.733651041984558,-8.802285194396973,-3.9603796005249023
1773231959264733400,11.8547333984375,-1.8063135147094727,-8.834371566772461,-3.8550612926483154
1773231959280726800,11.870726806640626,-1.859701156616211,-8.842694282531738,-3.8103346824645996
1773231959296716500,11.886716552734375,-1.8691257238388062,-8.833794593811035,-3.8263349533081055
1773231959312737800,11.90273779296875,-1.8394591808319092,-8.806644439697266,-3.902538537979126
1773231959328730400,11.91873046875,-1.7969108819961548,-8.749584197998047,-4.047998428344727
1773231959344720600,11.934720703125,-1.7608178853988647,-8.652070045471191,-4.267502307891846
1773231959360712700,11.950712646484375,-1.7350126504898071,-8.510661125183105,-4.552888870239258
1773231959376733200,11.966733154296875,-1.714691162109375,-8.327932357788086,-4.886285305023193
1773231959392724700,11.982724853515625,-1.6967928409576416,-8.111488342285156,-5.24357271194458
1773231959408717600,11.998717529296876,-1.6781117916107178,-7.863594055175781,-5.614107608795166
1773231959424738800,12.01473876953125,-1.6545222997665405,-7.583049297332764,-5.994192600250244
1773231959440729000,12.03072900390625,-1.6272631883621216,-7.265952110290527,-6.3818769454956055
1773231959456717800,12.0467177734375,-1.6021901369094849,-6.902920246124268,-6.778868675231934
1773231959472711700,12.062711669921875,-1.5793741941452026,-6.493962287902832,-7.176657676696777
1773231959488734200,12.078734130859376,-1.5580636262893677,-6.043692111968994,-7.5641679763793945
1773231959504725200,12.094725341796876,-1.5378671884536743,-5.563795566558838,-7.927769184112549
1773231959520716000,12.110716064453126,-1.5204638242721558,-5.061422824859619,-8.260785102844238
1773231959536737300,12.1267373046875,-1.5146112442016602,-4.544560432434082,-8.557063102722168
1773231959552729000,12.14272900390625,-1.526219129562378,-4.015719413757324,-8.815614700317383
1773231959568720100,12.15872021484375,-1.550818681716919,-3.485400438308716,-9.034232139587402
1773231959584743200,12.1747431640625,-1.5815017223358154,-2.967872142791748,-9.21200180053711
1773231959600731600,12.190731689453125,-1.6162216663360596,-2.4769279956817627,-9.350030899047852
1773231959616723500,12.206723388671875,-1.6564242839813232,-2.0272538661956787,-9.450761795043945
1773231959632715800,12.2227158203125,-1.7000722885131836,-1.6370137929916382,-9.518421173095703
1773231959648737300,12.2387373046875,-1.749808430671692,-1.3168222904205322,-9.559004783630371
1773231959664726500,12.2547265625,-1.8055460453033447,-1.0470702648162842,-9.581965446472168
1773231959680720000,12.270719970703125,-1.8636624813079834,-0.8143988251686096,-9.59343147277832
1773231959696710000,12.2867099609375,-1.9218034744262695,-0.6284405589103699,-9.595942497253418
1773231959712733200,12.302733154296876,-1.9757720232009888,-0.5066901445388794,-9.592184066772461
1773231959728725000,12.31872509765625,-2.020496129989624,-0.4639992117881775,-9.5850248336792
1773231959744713500,12.33471337890625,-2.0486388206481934,-0.5038667321205139,-9.577034950256348
1773231959760737300,12.3507373046875,-2.057111978530884,-0.6257100701332092,-9.568029403686523
1773231959776727800,12.366727783203125,-2.0462896823883057,-0.8211512565612793,-9.555562973022461
1773231959792719000,12.382718994140625,-2.019355058670044,-1.090980052947998,-9.534273147583008
1773231959808740000,12.398739990234375,-1.9824161529541016,-1.4273402690887451,-9.497530937194824
1773231959824731400,12.4147314453125,-1.9455828666687012,-1.8161782026290894,-9.438570022583008
1773231959840722200,12.43072216796875,-1.910313606262207,-2.2160396575927734,-9.36003589630127
1773231959856715800,12.4467158203125,-1.8712295293807983,-2.5873913764953613,-9.272232055664062
1773231959872736500,12.462736572265625,-1.8282203674316406,-2.941175937652588,-9.174826622009277
1773231959888727800,12.478727783203125,-1.7836878299713135,-3.284406900405884,-9.066505432128906
1773231959904718000,12.494718017578125,-1.73649001121521,-3.6273856163024902,-8.944108963012695
1773231959920741000,12.5107412109375,-1.6834349632263184,-3.984114646911621,-8.801322937011719
1773231959936731100,12.526731201171875,-1.6244665384292603,-4.355205059051514,-8.635026931762695
1773231959952723500,12.542723388671876,-1.5617197751998901,-4.722456932067871,-8.451616287231445
1773231959968713700,12.558713623046875,-1.497343897819519,-5.0702409744262695,-8.259601593017578
1773231959984736300,12.574736328125,-1.4414511919021606,-5.386933326721191,-8.066819190979004
1773231960000727800,12.590727783203125,-1.4061251878738403,-5.672444820404053,-7.875061511993408
1773231960016719000,12.606718994140625,-1.398337960243225,-5.939620494842529,-7.676976203918457
1773231960032740000,12.622739990234376,-1.41717529296875,-6.199613094329834,-7.46504020690918
1773231960048732000,12.63873193359375,-1.4604545831680298,-6.453934192657471,-7.23769474029541
1773231960064722200,12.65472216796875,-1.5273767709732056,-6.696143627166748,-6.999942779541016
1773231960080712700,12.670712646484375,-1.6144746541976929,-6.926451683044434,-6.7519001960754395
1773231960096734200,12.686734130859374,-1.7148195505142212,-7.142792224884033,-6.4969482421875
1773231960112725800,12.702725830078125,-1.8179233074188232,-7.344405651092529,-6.239011287689209
1773231960128716500,12.718716552734374,-1.91841459274292,-7.533761501312256,-5.977668762207031
1773231960144739000,12.734739013671875,-2.01178240776062,-7.707930088043213,-5.719350337982178
1773231960160729000,12.75072900390625,-2.0992913246154785,-7.865499019622803,-5.467843532562256
1773231960176721000,12.766720947265625,-2.184055805206299,-8.006680488586426,-5.224307060241699
1773231960192713200,12.782713134765626,-2.265964984893799,-8.13687801361084,-4.982670307159424
1773231960208735500,12.798735595703125,-2.3409640789031982,-8.259748458862305,-4.739922046661377
1773231960224726500,12.8147265625,-2.400996208190918,-8.375224113464355,-4.50124979019165
1773231960240716000,12.830716064453124,-2.43955135345459,-8.48483657836914,-4.269253253936768
1773231960256707000,12.84670703125,-2.460085391998291,-8.588122367858887,-4.045060634613037
1773231960272730400,12.86273046875,-2.4689743518829346,-8.680065155029297,-3.838104248046875
1773231960288722200,12.87872216796875,-2.4547183513641357,-8.76065444946289,-3.660017251968384
1773231960304711400,12.89471142578125,-2.406017303466797,-8.829540252685547,-3.5242998600006104
1773231960320734000,12.91073388671875,-2.347907066345215,-8.870685577392578,-3.459575891494751
1773231960336723700,12.9267236328125,-2.31547474861145,-8.858264923095703,-3.5128509998321533
1773231960352717000,12.942717041015625,-2.3183319568634033,-8.77895736694336,-3.7048122882843018
1773231960368737800,12.95873779296875,-2.3345396518707275,-8.642379760742188,-4.003697395324707
1773231960384729600,12.9747294921875,-2.3356542587280273,-8.464544296264648,-4.3665361404418945
1773231960400722000,12.990721923828126,-2.307638645172119,-8.259350776672363,-4.756927490234375
1773231960416711400,13.00671142578125,-2.2497377395629883,-8.034920692443848,-5.152583122253418
1773231960432734200,13.022734130859375,-2.167332649230957,-7.789183139801025,-5.549927711486816
1773231960448725000,13.03872509765625,-2.0747599601745605,-7.511830806732178,-5.95299768447876
1773231960464716000,13.054716064453125,-1.9888263940811157,-7.188052654266357,-6.367641925811768
1773231960480737800,13.07073779296875,-1.9176886081695557,-6.816495418548584,-6.784413814544678
1773231960496729300,13.086729248046876,-1.8612803220748901,-6.402405261993408,-7.191329479217529
1773231960512720600,13.102720703125,-1.824194312095642,-5.962667942047119,-7.568971633911133
1773231960528710700,13.118710693359375,-1.8031409978866577,-5.513941764831543,-7.906676769256592
1773231960544733000,13.13473291015625,-1.8008840084075928,-5.062135219573975,-8.203779220581055
1773231960560724500,13.150724365234375,-1.820202112197876,-4.612820148468018,-8.46044635772705
1773231960576714800,13.16671484375,-1.856104850769043,-4.16987943649292,-8.67971134185791
1773231960592737800,13.18273779296875,-1.901785969734192,-3.7398529052734375,-8.863807678222656
1773231960608729900,13.198729736328126,-1.9519822597503662,-3.3368678092956543,-9.012516975402832
1773231960624720600,13.214720703125,-2.001781702041626,-2.97229266166687,-9.128458976745605
1773231960640740400,13.230740234375,-2.0485472679138184,-2.652552604675293,-9.21617317199707
1773231960656733400,13.2467333984375,-2.0936636924743652,-2.3806817531585693,-9.280049324035645
1773231960672724000,13.262723876953125,-2.13818359375,-2.1512463092803955,-9.32580852508545
1773231960688714000,13.2787138671875,-2.1803781986236572,-1.9619462490081787,-9.357732772827148
1773231960704737000,13.294737060546876,-2.2223007678985596,-1.8171526193618774,-9.377083778381348
1773231960720728800,13.310728759765626,-2.2655386924743652,-1.7117195129394531,-9.386571884155273
1773231960736718600,13.326718505859375,-2.306114912033081,-1.6439837217330933,-9.388800621032715
1773231960752740600,13.34274072265625,-2.3365180492401123,-1.6183680295944214,-9.385732650756836
1773231960768733200,13.358733154296875,-2.3458240032196045,-1.6380130052566528,-9.379999160766602
1773231960784722200,13.37472216796875,-2.322516441345215,-1.7011126279830933,-9.374567985534668
1773231960800713200,13.390713134765624,-2.2712275981903076,-1.804198145866394,-9.367859840393066
1773231960816736000,13.406736083984375,-2.202385902404785,-1.9530508518218994,-9.354436874389648
1773231960832728000,13.42272802734375,-2.1238112449645996,-2.157780647277832,-9.327584266662598
1773231960848718800,13.43871875,-2.041445016860962,-2.407886266708374,-9.28466510772705
1773231960864741400,13.454741455078125,-1.9568556547164917,-2.6748039722442627,-9.229657173156738
1773231960880729600,13.4707294921875,-1.870611548423767,-2.9418087005615234,-9.166077613830566
1773231960896723500,13.486723388671875,-1.785933256149292,-3.200875759124756,-9.095892906188965
1773231960912714200,13.50271435546875,-1.7069671154022217,-3.4555985927581787,-9.017510414123535
1773231960928735000,13.51873486328125,-1.6360589265823364,-3.748502016067505,-8.913047790527344
1773231960944727800,13.534727783203126,-1.5771467685699463,-4.0789313316345215,-8.777546882629395
1773231960960717300,13.55071728515625,-1.53239107131958,-4.414076805114746,-8.621954917907715
1773231960976738600,13.566738525390624,-1.4982688426971436,-4.756521701812744,-8.443997383117676
1773231960992731400,13.5827314453125,-1.4727482795715332,-5.092220306396484,-8.250495910644531
1773231961008724000,13.598723876953125,-1.4591227769851685,-5.409241676330566,-8.048693656921387
1773231961024713700,13.614713623046875,-1.462180256843567,-5.704203128814697,-7.84184455871582
1773231961040735200,13.6307353515625,-1.4810447692871094,-5.988589286804199,-7.62323522567749
1773231961056727300,13.646727294921876,-1.509350061416626,-6.27671480178833,-7.382079601287842
1773231961072718000,13.662718017578126,-1.5442970991134644,-6.5665411949157715,-7.118010520935059
1773231961088738600,13.678738525390624,-1.5794193744659424,-6.843247890472412,-6.844397068023682
1773231961104729600,13.6947294921875,-1.614855408668518,-7.113892078399658,-6.554020881652832
1773231961120721400,13.710721435546875,-1.6575287580490112,-7.373230934143066,-6.24967622756958
1773231961136712200,13.726712158203124,-1.7118393182754517,-7.613659381866455,-5.939041614532471
1773231961152733700,13.742733642578125,-1.7781180143356323,-7.834540843963623,-5.623932838439941
1773231961168725800,13.758725830078125,-1.8524612188339233,-8.03090763092041,-5.3144426345825195
1773231961184716800,13.774716796875,-1.932626724243164,-8.199477195739746,-5.020354747772217
1773231961200738600,13.790738525390625,-2.017460346221924,-8.341652870178223,-4.745218276977539
1773231961216728300,13.806728271484374,-2.1024277210235596,-8.461864471435547,-4.488549709320068
1773231961232719400,13.82271923828125,-2.182119131088257,-8.562365531921387,-4.253779888153076
1773231961248714000,13.8387138671875,-2.2593600749969482,-8.641931533813477,-4.0475568771362305
1773231961264735200,13.8547353515625,-2.3394968509674072,-8.700142860412598,-3.8735852241516113
1773231961280724700,13.870724853515625,-2.4157488346099854,-8.737406730651855,-3.7406275272369385
1773231961296716300,13.88671630859375,-2.464641809463501,-8.759305953979492,-3.6565723419189453
1773231961312737800,13.90273779296875,-2.4695332050323486,-8.77155590057373,-3.6237552165985107
1773231961328729600,13.9187294921875,-2.4386470317840576,-8.770381927490234,-3.6474366188049316
1773231961344719400,13.93471923828125,-2.3891525268554688,-8.743246078491211,-3.7440600395202637
1773231961360712700,13.950712646484375,-2.3253164291381836,-8.678940773010254,-3.9292891025543213
1773231961376733400,13.9667333984375,-2.2478344440460205,-8.574185371398926,-4.195353984832764
1773231961392726300,13.982726318359376,-2.1575310230255127,-8.434395790100098,-4.5140252113342285
1773231961408715500,13.998715576171875,-2.0544068813323975,-8.267912864685059,-4.85709810256958
1773231961424737800,14.01473779296875,-1.9420599937438965,-8.076801300048828,-5.211918354034424
1773231961440728000,14.03072802734375,-1.8275389671325684,-7.8553466796875,-5.578889846801758
1773231961456720400,14.046720458984375,-1.7193899154663086,-7.594905376434326,-5.960832595825195
1773231961472711700,14.062711669921875,-1.6259785890579224,-7.291513442993164,-6.352987289428711
1773231961488734200,14.078734130859376,-1.5530200004577637,-6.943679332733154,-6.748619079589844
1773231961504723700,14.0947236328125,-1.5035346746444702,-6.55531120300293,-7.137064456939697
1773231961520716300,14.11071630859375,-1.4760102033615112,-6.13450813293457,-7.507302284240723
1773231961536738600,14.126738525390625,-1.4650436639785767,-5.692620277404785,-7.849722385406494
1773231961552729300,14.142729248046875,-1.466956615447998,-5.240484714508057,-8.158171653747559
1773231961568719400,14.15871923828125,-1.4796142578125,-4.7845139503479,-8.431464195251465
1773231961584742000,14.174741943359376,-1.5026381015777588,-4.330764293670654,-8.6693115234375
1773231961600734200,14.190734130859376,-1.536020040512085,-3.8861653804779053,-8.871795654296875
1773231961616724700,14.206724853515626,-1.5727872848510742,-3.4591996669769287,-9.040502548217773
1773231961632715500,14.222715576171876,-1.60904061794281,-3.0582878589630127,-9.177596092224121
1773231961648737500,14.238737548828125,-1.645796537399292,-2.6842665672302246,-9.287435531616211
1773231961664728000,14.25472802734375,-1.6783757209777832,-2.3510565757751465,-9.371554374694824
1773231961680720100,14.27072021484375,-1.7091118097305298,-2.0716583728790283,-9.431732177734375
1773231961696740900,14.286740966796875,-1.7378569841384888,-1.8493095636367798,-9.47260856628418
1773231961712732700,14.302732666015626,-1.7631676197052002,-1.6832642555236816,-9.498856544494629
1773231961728723200,14.31872314453125,-1.7845572233200073,-1.5717753171920776,-9.51395034790039
1773231961744715300,14.33471533203125,-1.8028377294540405,-1.5197725296020508,-9.518953323364258
1773231961760737300,14.3507373046875,-1.8186482191085815,-1.5382356643676758,-9.512977600097656
1773231961776727000,14.36672705078125,-1.828717827796936,-1.6364126205444336,-9.494649887084961
1773231961792719400,14.38271923828125,-1.8340965509414673,-1.8158659934997559,-9.460926055908203
1773231961808742000,14.398741943359376,-1.8382962942123413,-2.063512086868286,-9.409196853637695
1773231961824732400,14.414732421875,-1.8465980291366577,-2.371750831604004,-9.334626197814941
1773231961840723200,14.43072314453125,-1.8635660409927368,-2.720146894454956,-9.235709190368652
1773231961856714000,14.4467138671875,-1.8799974918365479,-3.083305597305298,-9.117522239685059
1773231961872736500,14.462736572265625,-1.8867671489715576,-3.4378859996795654,-8.988408088684082
1773231961888727600,14.4787275390625,-1.8675956726074219,-3.777837038040161,-8.854968070983887
1773231961904718000,14.494718017578125,-1.8196475505828857,-4.111889839172363,-8.715024948120117
1773231961928735500,14.518735595703125,-1.708179235458374,-4.631324768066406,-8.473686218261719
1773231961944725500,14.5347255859375,-1.616439938545227,-4.998433589935303,-8.280893325805664
1773231961960718800,14.55071875,-1.5237531661987305,-5.3738627433776855,-8.060408592224121
1773231961976739600,14.566739501953125,-1.4411144256591797,-5.744886875152588,-7.816000461578369
1773231961992731400,14.5827314453125,-1.3838015794754028,-6.097388744354248,-7.554955959320068
1773231962008720400,14.598720458984374,-1.3579232692718506,-6.428234100341797,-7.280402183532715
1773231962024712700,14.614712646484374,-1.3550742864608765,-6.743407726287842,-6.990036487579346
1773231962040736000,14.630736083984376,-1.3648008108139038,-7.050475120544434,-6.6782145500183105
1773231962056726800,14.646726806640626,-1.3774030208587646,-7.350837707519531,-6.343369483947754
1773231962072718000,14.662718017578126,-1.3886451721191406,-7.642062664031982,-5.986730575561523
1773231962088738800,14.67873876953125,-1.4039310216903687,-7.913690090179443,-5.6189775466918945
1773231962104731000,14.69473095703125,-1.4251470565795898,-8.162109375,-5.245887756347656
1773231962120723000,14.710722900390625,-1.44972825050354,-8.385054588317871,-4.874377727508545
1773231962136712700,14.726712646484375,-1.4716130495071411,-8.58423137664795,-4.507296085357666
1773231962152735000,14.74273486328125,-1.4871326684951782,-8.760530471801758,-4.1487250328063965
1773231962168725000,14.75872509765625,-1.5020546913146973,-8.91171932220459,-3.8072915077209473
1773231962184717600,14.774717529296876,-1.5210002660751343,-9.035359382629395,-3.495604991912842
1773231962200739000,14.790739013671875,-1.5418097972869873,-9.131512641906738,-3.226252555847168
1773231962216729600,14.8067294921875,-1.55649995803833,-9.20248031616211,-3.0103230476379395
1773231962232721700,14.8227216796875,-1.5597026348114014,-9.251633644104004,-2.8539445400238037
1773231962248712700,14.838712646484375,-1.5526024103164673,-9.282661437988281,-2.7553646564483643
1773231962264733700,14.854733642578125,-1.5367594957351685,-9.297022819519043,-2.715532064437866
1773231962280725800,14.870725830078126,-1.4976999759674072,-9.295534133911133,-2.742327928543091
1773231962296717000,14.886717041015626,-1.4159739017486572,-9.282081604003906,-2.82991099357605
1773231962312738800,14.90273876953125,-1.3041619062423706,-9.254239082336426,-2.971296548843384
1773231962328730400,14.91873046875,-1.2005764245986938,-9.202314376831055,-3.1696135997772217
1773231962344722000,14.934721923828125,-1.1291589736938477,-9.118535995483398,-3.4274911880493164
1773231962360710100,14.950710205078124,-1.09232497215271,-9.000044822692871,-3.738502025604248
1773231962376733400,14.9667333984375,-1.088139533996582,-8.844940185546875,-4.0930914878845215
1773231962392724500,14.982724365234375,-1.1097931861877441,-8.654129981994629,-4.477140426635742
1773231962408716500,14.998716552734376,-1.1409084796905518,-8.428895950317383,-4.880824565887451
1773231962424738600,15.014738525390625,-1.169602870941162,-8.167442321777344,-5.300503253936768
1773231962440728800,15.030728759765625,-1.1922718286514282,-7.866758823394775,-5.732625484466553
1773231962456720100,15.04672021484375,-1.2105460166931152,-7.518148899078369,-6.179193019866943
1773231962472713000,15.062712890625,-1.2233508825302124,-7.119534969329834,-6.632197856903076
1773231962488735000,15.07873486328125,-1.2327220439910889,-6.678297519683838,-7.074683666229248
1773231962504724000,15.094723876953125,-1.2435158491134644,-6.206149578094482,-7.490512371063232
1773231962520717000,15.110717041015626,-1.2598415613174438,-5.706422328948975,-7.875273704528809
1773231962536738600,15.126738525390625,-1.2905532121658325,-5.183287620544434,-8.224255561828613
1773231962552729900,15.142729736328125,-1.3416996002197266,-4.649918556213379,-8.529272079467773
1773231962568718600,15.158718505859374,-1.4135520458221436,-4.117631912231445,-8.787342071533203
1773231962584742000,15.174741943359376,-1.4977740049362183,-3.595454216003418,-8.999987602233887
1773231962600732000,15.19073193359375,-1.5883411169052124,-3.0914764404296875,-9.17007827758789
1773231962616723500,15.206723388671875,-1.6759426593780518,-2.620532989501953,-9.300239562988281
1773231962632716300,15.22271630859375,-1.750815987586975,-2.195333242416382,-9.396040916442871
1773231962648738000,15.238738037109375,-1.8091323375701904,-1.834704041481018,-9.462099075317383
1773231962664727600,15.2547275390625,-1.8548274040222168,-1.5172005891799927,-9.509369850158691
1773231962680720000,15.270719970703125,-1.8928645849227905,-1.233393907546997,-9.542861938476562
1773231962696712000,15.2867119140625,-1.9242448806762695,-0.9978712201118469,-9.56409740447998
1773231962712733400,15.3027333984375,-1.9529849290847778,-0.8219364881515503,-9.575004577636719
1773231962728724200,15.31872412109375,-1.9827237129211426,-0.7098977565765381,-9.577852249145508
1773231962744714000,15.3347138671875,-2.014258861541748,-0.6708391904830933,-9.574087142944336
1773231962760735500,15.350735595703124,-2.045043468475342,-0.714084804058075,-9.56442928314209
1773231962776726800,15.366726806640624,-2.0672245025634766,-0.8408299088478088,-9.549344062805176
1773231962792719000,15.382718994140625,-2.0741164684295654,-1.0433226823806763,-9.527851104736328
1773231962808738300,15.39873828125,-2.0643322467803955,-1.3110922574996948,-9.49683952331543
1773231962824731400,15.4147314453125,-2.036365509033203,-1.6416035890579224,-9.451390266418457
1773231962840724000,15.430723876953126,-1.9951969385147095,-2.0289673805236816,-9.38471508026123
1773231962856714200,15.44671435546875,-1.9448314905166626,-2.4584152698516846,-9.292160034179688
1773231962872736500,15.462736572265625,-1.8886289596557617,-2.8858885765075684,-9.18014907836914
1773231962888726800,15.478726806640625,-1.8324936628341675,-3.296638011932373,-9.052323341369629
1773231962904718600,15.494718505859375,-1.7779227495193481,-3.7100253105163574,-8.901970863342285
1773231962920739000,15.510739013671875,-1.7248786687850952,-4.130621433258057,-8.725431442260742
1773231962936730600,15.526730712890625,-1.6732053756713867,-4.563459873199463,-8.517372131347656
1773231962952723200,15.54272314453125,-1.6232075691223145,-5.0031867027282715,-8.276698112487793
1773231962968713000,15.558712890625,-1.575123906135559,-5.434905529022217,-8.009444236755371
1773231962984735500,15.574735595703125,-1.5317133665084839,-5.840895652770996,-7.72710657119751
1773231963000728000,15.59072802734375,-1.4977657794952393,-6.208568096160889,-7.441827297210693
1773231963016718800,15.60671875,-1.4812588691711426,-6.540353298187256,-7.155421257019043
1773231963032740600,15.62274072265625,-1.4874919652938843,-6.844473361968994,-6.863741397857666
1773231963048730000,15.638730224609375,-1.5154788494110107,-7.129619121551514,-6.560659885406494
1773231963064723000,15.654722900390626,-1.5574349164962769,-7.397463798522949,-6.246784210205078
1773231963080714800,15.67071484375,-1.6062930822372437,-7.6483964920043945,-5.923871040344238
1773231963096733400,15.6867333984375,-1.6601766347885132,-7.880671501159668,-5.595462322235107
1773231963112727000,15.70272705078125,-1.7160598039627075,-8.092047691345215,-5.267285346984863
1773231963128717800,15.7187177734375,-1.771736741065979,-8.283988952636719,-4.940330505371094
1773231963144740400,15.734740234375,-1.824275255203247,-8.4556303024292,-4.620039463043213
1773231963160729900,15.750729736328125,-1.8752012252807617,-8.604581832885742,-4.314533233642578
1773231963176721700,15.7667216796875,-1.9296605587005615,-8.727763175964355,-4.033980846405029
1773231963192713700,15.782713623046876,-1.991860032081604,-8.825439453125,-3.783451557159424
1773231963208735000,15.79873486328125,-2.058933973312378,-8.901647567749023,-3.562563180923462
1773231963224725800,15.814725830078125,-2.121713876724243,-8.961338996887207,-3.3709285259246826
1773231963240717600,15.830717529296875,-2.1742403507232666,-9.007734298706055,-3.209951877593994
1773231963256738300,15.84673828125,-2.219010591506958,-9.040067672729492,-3.086028575897217
1773231963272731000,15.86273095703125,-2.2632319927215576,-9.056726455688477,-3.003979444503784
1773231963288722200,15.87872216796875,-2.296823740005493,-9.057685852050781,-2.975452423095703
1773231963304714000,15.8947138671875,-2.29608154296875,-9.048526763916016,-3.0037569999694824
1773231963320733700,15.910733642578125,-2.243929386138916,-9.03650188446045,-3.078444004058838
1773231963336723500,15.926723388671874,-2.151014804840088,-9.020211219787598,-3.1905019283294678
1773231963352716000,15.942716064453125,-2.0454413890838623,-8.98649787902832,-3.3510375022888184
1773231963368737300,15.9587373046875,-1.9489309787750244,-8.92306137084961,-3.5708627700805664
1773231963384729900,15.974729736328126,-1.8703560829162598,-8.8252534866333,-3.8453962802886963
1773231963400721400,15.990721435546876,-1.8148142099380493,-8.694038391113281,-4.158190727233887
1773231963416711400,16.00671142578125,-1.7767945528030396,-8.530981063842773,-4.498416423797607
1773231963432734000,16.02273388671875,-1.7421350479125977,-8.335442543029785,-4.863718509674072
1773231963448724000,16.038723876953124,-1.7070918083190918,-8.104172706604004,-5.2515363693237305
1773231963464716000,16.054716064453125,-1.6745357513427734,-7.830429553985596,-5.661333084106445
1773231963480738600,16.070738525390624,-1.6463801860809326,-7.5076470375061035,-6.090571880340576
1773231963496729900,16.086729736328124,-1.622564673423767,-7.135384559631348,-6.52870512008667
1773231963512719600,16.1027197265625,-1.5986758470535278,-6.726958751678467,-6.954326152801514
1773231963528711700,16.118711669921876,-1.575110912322998,-6.291051387786865,-7.35609245300293
1773231963544733400,16.1347333984375,-1.5546722412109375,-5.837835311889648,-7.7248334884643555
1773231963560724200,16.15072412109375,-1.5387945175170898,-5.378463268280029,-8.054478645324707
1773231963576714800,16.16671484375,-1.5356650352478027,-4.917405128479004,-8.344534873962402
1773231963592738600,16.182738525390626,-1.548745036125183,-4.4560136795043945,-8.597427368164062
1773231963608729300,16.198729248046874,-1.5777956247329712,-4.006557941436768,-8.810702323913574
1773231963624719600,16.2147197265625,-1.6199347972869873,-3.5791900157928467,-8.985300064086914
1773231963640742100,16.2307421875,-1.667795181274414,-3.1862282752990723,-9.123419761657715
1773231963656732200,16.246732177734376,-1.715755581855774,-2.842348098754883,-9.227546691894531
1773231963672724500,16.262724365234376,-1.7619380950927734,-2.551151990890503,-9.303633689880371
1773231963688715800,16.2787158203125,-1.8053796291351318,-2.298933506011963,-9.360870361328125
1773231963704736800,16.29473681640625,-1.8457190990447998,-2.0770440101623535,-9.404766082763672
1773231963720729300,16.310729248046876,-1.8804419040679932,-1.8982199430465698,-9.435629844665527
1773231963736718800,16.32671875,-1.9069949388504028,-1.7745919227600098,-9.454343795776367
1773231963752710700,16.342710693359376,-1.9282164573669434,-1.7168608903884888,-9.46069622039795
1773231963768731400,16.3587314453125,-1.9455498456954956,-1.7284716367721558,-9.45503044128418
1773231963784724000,16.374723876953126,-1.9566158056259155,-1.8133302927017212,-9.436835289001465
1773231963800715500,16.390715576171875,-1.959686040878296,-1.9758633375167847,-9.403509140014648
1773231963816736500,16.406736572265626,-1.9539648294448853,-2.2102668285369873,-9.352386474609375
1773231963832728000,16.42272802734375,-1.9437752962112427,-2.490834951400757,-9.28374195098877
1773231963848719000,16.438718994140626,-1.9322540760040283,-2.8139309883117676,-9.193400382995605
1773231963864741400,16.454741455078125,-1.9137290716171265,-3.1735994815826416,-9.079444885253906
1773231963880731000,16.47073095703125,-1.874245524406433,-3.5478672981262207,-8.948196411132812
1773231963896723000,16.486722900390625,-1.8141900300979614,-3.901752471923828,-8.81223201751709
1773231963912714800,16.50271484375,-1.734556794166565,-4.235036849975586,-8.673304557800293
1773231963928737000,16.518737060546876,-1.6438829898834229,-4.5660505294799805,-8.521692276000977
1773231963944726300,16.534726318359375,-1.5597820281982422,-4.907087802886963,-8.346136093139648
1773231963960719000,16.550718994140624,-1.4939146041870117,-5.268429756164551,-8.135249137878418
1773231963976708400,16.566708251953123,-1.4483674764633179,-5.651461601257324,-7.882487773895264
1773231963992731100,16.582731201171875,-1.4229168891906738,-6.036445140838623,-7.5965142250061035
1773231964008722400,16.598722412109375,-1.4145841598510742,-6.405173301696777,-7.2899322509765625
1773231964024712700,16.614712646484374,-1.4181798696517944,-6.7531609535217285,-6.9680681228637695
1773231964040735200,16.6307353515625,-1.4266715049743652,-7.082589149475098,-6.631134510040283
1773231964056726000,16.64672607421875,-1.4314731359481812,-7.399877548217773,-6.274003028869629
1773231964072717000,16.662717041015625,-1.4228519201278687,-7.707106113433838,-5.894608020782471
1773231964088739600,16.678739501953125,-1.4012778997421265,-8.000577926635742,-5.495231628417969
1773231964104729000,16.69472900390625,-1.3751713037490845,-8.271060943603516,-5.086145877838135
1773231964120720000,16.710719970703124,-1.3545711040496826,-8.508769035339355,-4.683631420135498
1773231964136723500,16.726723388671875,-1.3423843383789062,-8.711371421813965,-4.298884391784668
1773231964152747300,16.742747314453126,-1.338967204093933,-8.880983352661133,-3.9377248287200928
1773231964168738300,16.75873828125,-1.345277190208435,-9.019877433776855,-3.605891227722168
1773231964184728600,16.774728515625,-1.3632055521011353,-9.131109237670898,-3.3067946434020996
1773231964200751900,16.790751953125,-1.3938339948654175,-9.21603012084961,-3.0483438968658447
1773231964216742700,16.80674267578125,-1.4294342994689941,-9.278946876525879,-2.833414316177368
1773231964232733200,16.822733154296873,-1.4532383680343628,-9.326094627380371,-2.661287546157837
1773231964248725800,16.838725830078126,-1.4531272649765015,-9.361825942993164,-2.5327961444854736
1773231964264746500,16.85474658203125,-1.4324562549591064,-9.388675689697266,-2.4436092376708984
1773231964280737800,16.87073779296875,-1.4052684307098389,-9.406041145324707,-2.392068862915039
1773231964296728300,16.886728271484376,-1.368036150932312,-9.413570404052734,-2.384028673171997
1773231964312751600,16.902751708984376,-1.30699622631073,-9.411816596984863,-2.4248409271240234
1773231964328741000,16.9187412109375,-1.2354928255081177,-9.395596504211426,-2.5232431888580322
1773231964344733700,16.934733642578124,-1.1886066198349,-9.35291576385498,-2.6982576847076416
1773231964360734000,16.95073388671875,-1.1844371557235718,-9.274395942687988,-2.9585578441619873
1773231964376745000,16.966744873046874,-1.2232635021209717,-9.155411720275879,-3.29430890083313
1773231964392737300,16.9827373046875,-1.2976754903793335,-8.994997024536133,-3.684626817703247
1773231964408729000,16.99872900390625,-1.3913719654083252,-8.79539966583252,-4.10797119140625
1773231964424750800,17.014750732421874,-1.4855453968048096,-8.558024406433105,-4.552336692810059
1773231964440739600,17.030739501953125,-1.5666700601577759,-8.284534454345703,-5.008237361907959
1773231964456733400,17.0467333984375,-1.6275153160095215,-7.975131511688232,-5.4698166847229
1773231964472724200,17.06272412109375,-1.6637276411056519,-7.631382465362549,-5.929960250854492
1773231964488745700,17.078745849609376,-1.6728168725967407,-7.256918907165527,-6.380376815795898
1773231964504737500,17.094737548828125,-1.660935401916504,-6.8599677085876465,-6.808271884918213
1773231964520727600,17.1107275390625,-1.6396242380142212,-6.443837642669678,-7.20825719833374
1773231964536749800,17.126749755859375,-1.622218370437622,-6.012768745422363,-7.575315952301025
1773231964552741000,17.1427412109375,-1.620248794555664,-5.573668003082275,-7.904393196105957
1773231964568732200,17.158732177734375,-1.640357494354248,-5.137469291687012,-8.190606117248535
1773231964584724700,17.174724853515624,-1.6800109148025513,-4.709797382354736,-8.435981750488281
1773231964600745700,17.190745849609375,-1.7325809001922607,-4.3028717041015625,-8.640247344970703
1773231964616737800,17.20673779296875,-1.7895488739013672,-3.9354920387268066,-8.802262306213379
1773231964632727600,17.2227275390625,-1.8450441360473633,-3.6157279014587402,-8.92707633972168
1773231964648748800,17.238748779296873,-1.9043267965316772,-3.330381393432617,-9.025105476379395
1773231964664740600,17.25474072265625,-1.9679011106491089,-3.078801393508911,-9.100480079650879
1773231964680733200,17.270733154296874,-2.0339765548706055,-2.861617088317871,-9.156664848327637
1773231964696723000,17.286722900390625,-2.099045515060425,-2.6827170848846436,-9.19605541229248
1773231964712745700,17.302745849609376,-2.1609084606170654,-2.549004316329956,-9.219731330871582
1773231964728735500,17.318735595703124,-2.2165544033050537,-2.4683873653411865,-9.22845458984375
1773231964744727000,17.33472705078125,-2.258221387863159,-2.4443392753601074,-9.224752426147461
1773231964760747800,17.350747802734375,-2.2808356285095215,-2.4810714721679688,-9.209367752075195
1773231964776739000,17.366739013671875,-2.2806284427642822,-2.5786478519439697,-9.182576179504395
1773231964792732000,17.38273193359375,-2.2552731037139893,-2.7384591102600098,-9.14248275756836
1773231964808754200,17.398754150390626,-2.213942050933838,-2.9520769119262695,-9.085929870605469
1773231964824743700,17.41474365234375,-2.162923812866211,-3.216329336166382,-9.008182525634766
1773231964840734700,17.430734619140626,-2.1036527156829834,-3.5323987007141113,-8.903213500976562
1773231964856726500,17.4467265625,-2.035383462905884,-3.882112741470337,-8.772503852844238
1773231964872748800,17.462748779296874,-1.954760193824768,-4.235363483428955,-8.62618350982666
1773231964888739800,17.47873974609375,-1.8646275997161865,-4.571106910705566,-8.473402976989746
1773231964904732000,17.49473193359375,-1.765594244003296,-4.891773700714111,-8.31406307220459
1773231964920753400,17.51075341796875,-1.6599535942077637,-5.2045769691467285,-8.144161224365234
1773231964936745200,17.5267451171875,-1.5512686967849731,-5.522022724151611,-7.95432186126709
1773231964952736000,17.542736083984376,-1.4500617980957031,-5.852804183959961,-7.733848571777344
1773231964968726500,17.5587265625,-1.366984486579895,-6.193699359893799,-7.479294776916504
1773231964984747000,17.5747470703125,-1.306739091873169,-6.52925443649292,-7.19942045211792
1773231965000738600,17.590738525390623,-1.2631573677062988,-6.838851451873779,-6.914111614227295
1773231965016730000,17.606730224609375,-1.2349255084991455,-7.114582538604736,-6.635364532470703
1773231965032752600,17.622752685546875,-1.2251865863800049,-7.362951755523682,-6.360523700714111
1773231965048744200,17.638744140625,-1.233455777168274,-7.5973124504089355,-6.076992988586426
1773231965064735000,17.65473486328125,-1.250656247138977,-7.826381206512451,-5.775294303894043
1773231965080725500,17.6707255859375,-1.2650830745697021,-8.051856994628906,-5.4532151222229
1773231965096748500,17.68674853515625,-1.2763818502426147,-8.271195411682129,-5.111612796783447
1773231965112739600,17.702739501953126,-1.2879477739334106,-8.477325439453125,-4.758838176727295
1773231965128731100,17.718731201171874,-1.29906165599823,-8.662862777709961,-4.408817768096924
1773231965144751900,17.734751953125,-1.3098176717758179,-8.828178405761719,-4.064239501953125
1773231965160743700,17.75074365234375,-1.3236831426620483,-8.974539756774902,-3.7250335216522217
1773231965176734700,17.766734619140625,-1.3469629287719727,-9.100820541381836,-3.3957555294036865
1773231965192726300,17.782726318359376,-1.3796172142028809,-9.20522689819336,-3.0872092247009277
1773231965208745500,17.798745361328123,-1.4141134023666382,-9.286938667297363,-2.8148632049560547
1773231965224739800,17.81473974609375,-1.4397159814834595,-9.348673820495605,-2.5884199142456055
1773231965240729000,17.83072900390625,-1.4484540224075317,-9.395389556884766,-2.4081220626831055
1773231965256752000,17.846752197265626,-1.4465876817703247,-9.429973602294922,-2.270108222961426
1773231965272743200,17.8627431640625,-1.4402116537094116,-9.452552795410156,-2.1784048080444336
1773231965288734500,17.878734375,-1.4150111675262451,-9.465985298156738,-2.136181116104126
1773231965304725800,17.894725830078126,-1.3519623279571533,-9.47420883178711,-2.140554904937744
1773231965320748000,17.910748046875,-1.2678338289260864,-9.474286079406738,-2.1910898685455322
1773231965336738600,17.926738525390626,-1.1978425979614258,-9.456631660461426,-2.3038365840911865
1773231965352729900,17.942729736328126,-1.1558797359466553,-9.411025047302246,-2.50338077545166
1773231965368750300,17.958750244140624,-1.1472820043563843,-9.332223892211914,-2.786348581314087
1773231965384743200,17.9747431640625,-1.172905683517456,-9.220499038696289,-3.126835823059082
1773231965400734700,17.990734619140625,-1.225775122642517,-9.079366683959961,-3.4975645542144775
1773231965416722700,18.00672265625,-1.2961711883544922,-8.911665916442871,-3.882340908050537
1773231965432746800,18.022746826171876,-1.373247742652893,-8.718247413635254,-4.275134563446045
1773231965448737500,18.038737548828124,-1.4517664909362793,-8.498071670532227,-4.673922538757324
1773231965464727300,18.054727294921875,-1.5289576053619385,-8.24824047088623,-5.079291820526123
1773231965480751000,18.070751220703126,-1.5981117486953735,-7.970464706420898,-5.485266208648682
1773231965496742700,18.08674267578125,-1.6548054218292236,-7.668072700500488,-5.884954929351807
1773231965512733200,18.102733154296875,-1.699965000152588,-7.3451828956604,-6.271268367767334
1773231965528725000,18.11872509765625,-1.742260217666626,-7.004478454589844,-6.638690948486328
1773231965544746200,18.134746337890626,-1.7889436483383179,-6.6502203941345215,-6.981736660003662
1773231965560737300,18.1507373046875,-1.8418385982513428,-6.288573741912842,-7.296018123626709
1773231965576727300,18.166727294921873,-1.9009848833084106,-5.925255298614502,-7.5794477462768555
1773231965592750000,18.18275,-1.9674748182296753,-5.567745685577393,-7.829409122467041
1773231965608743000,18.198742919921877,-2.0383644104003906,-5.221521854400635,-8.046813011169434
1773231965624733200,18.214733154296876,-2.111253023147583,-4.894989013671875,-8.231164932250977
1773231965640723500,18.230723388671876,-2.1865127086639404,-4.592003345489502,-8.38469409942627
1773231965656746200,18.246746337890624,-2.262178897857666,-4.310880184173584,-8.512887001037598
1773231965672737000,18.262737060546876,-2.3372902870178223,-4.049098968505859,-8.62045669555664
1773231965688727600,18.2787275390625,-2.408102035522461,-3.8086955547332764,-8.710068702697754
1773231965704750800,18.294750732421875,-2.469679832458496,-3.5997605323791504,-8.781388282775879
1773231965720742000,18.310741943359375,-2.5127553939819336,-3.4356303215026855,-8.834754943847656
1773231965736732000,18.32673193359375,-2.533048391342163,-3.3280367851257324,-8.870073318481445
1773231965752755000,18.3427548828125,-2.530573844909668,-3.2846579551696777,-8.886938095092773
1773231965768744400,18.358744384765625,-2.5059170722961426,-3.308013439178467,-8.885258674621582
1773231965784735500,18.374735595703125,-2.4661521911621094,-3.401860237121582,-8.860918045043945
1773231965800728600,18.390728515625,-2.422006607055664,-3.5648014545440674,-8.80888557434082
1773231965816748500,18.40674853515625,-2.378444194793701,-3.7915191650390625,-8.725698471069336
1773231965832741000,18.4227412109375,-2.3316638469696045,-4.070475101470947,-8.611908912658691
1773231965848732200,18.438732177734376,-2.272223472595215,-4.385049819946289,-8.472233772277832
1773231965864753400,18.45475341796875,-2.196796178817749,-4.711889743804932,-8.315200805664062
1773231965880745500,18.470745361328124,-2.1055731773376465,-5.03558874130249,-8.147379875183105
1773231965896736500,18.486736572265624,-2.001218318939209,-5.3518548011779785,-7.970142364501953
1773231965912728000,18.50272802734375,-1.8771036863327026,-5.666018009185791,-7.780946254730225
1773231965928749800,18.518749755859375,-1.7269898653030396,-5.988656044006348,-7.571256160736084
1773231965944740600,18.53474072265625,-1.555849552154541,-6.319427967071533,-7.335842609405518
1773231965960730400,18.55073046875,-1.3777209520339966,-6.6474456787109375,-7.07698917388916
1773231965976752400,18.56675244140625,-1.2107375860214233,-6.957174777984619,-6.804572582244873
1773231965992744400,18.582744384765626,-1.0647739171981812,-7.243094444274902,-6.524893283843994
1773231966008736800,18.59873681640625,-0.9397159814834595,-7.508726119995117,-6.237497329711914
1773231966024725800,18.614725830078125,-0.8303303122520447,-7.764466285705566,-5.932453632354736
1773231966040748800,18.630748779296876,-0.7260633111000061,-8.017402648925781,-5.600397109985352
1773231966056739300,18.6467392578125,-0.6147542595863342,-8.26852035522461,-5.236798286437988
1773231966072731100,18.662731201171876,-0.4954749643802643,-8.513199806213379,-4.842555522918701
1773231966088753200,18.678753173828124,-0.378290593624115,-8.739831924438477,-4.431999206542969
1773231966104745000,18.694744873046876,-0.2702271044254303,-8.941764831542969,-4.017739772796631
1773231966120735500,18.710735595703124,-0.1726888120174408,-9.114021301269531,-3.6159656047821045
1773231966136727600,18.7267275390625,-0.07798077166080475,-9.25679874420166,-3.2366650104522705
1773231966160743700,18.75074365234375,0.05748860538005829,-9.419133186340332,-2.728924036026001
1773231966176735200,18.7667353515625,0.1259177029132843,-9.494795799255371,-2.4501755237579346
1773231966192727000,18.78272705078125,0.16455869376659393,-9.54714298248291,-2.2350378036499023
1773231966208746800,18.798746826171875,0.1693713515996933,-9.58076286315918,-2.085831642150879
1773231966224739800,18.81473974609375,0.1415986716747284,-9.600101470947266,-1.997091293334961
1773231966240731000,18.83073095703125,0.08104805648326874,-9.608160972595215,-1.9613994359970093
1773231966256752600,18.846752685546875,-0.00815846398472786,-9.60499095916748,-1.9785014390945435
1773231966272743000,18.862742919921875,-0.10901012271642685,-9.58889102935791,-2.052243232727051
1773231966288733700,18.878733642578126,-0.19614392518997192,-9.55888843536377,-2.181638479232788
1773231966304726300,18.894726318359375,-0.2684323191642761,-9.514044761657715,-2.3624825477600098
1773231966320748500,18.91074853515625,-0.3463406264781952,-9.45036506652832,-2.5963454246520996
1773231966336738000,18.926738037109374,-0.4507485032081604,-9.359328269958496,-2.893131732940674
1773231966352730400,18.94273046875,-0.5811994671821594,-9.232112884521484,-3.255869150161743
1773231966368752400,18.95875244140625,-0.718400776386261,-9.064894676208496,-3.671785354614258
1773231966384743700,18.97474365234375,-0.8494842052459717,-8.859221458435059,-4.118612766265869
1773231966400734500,18.990734375,-0.9646145701408386,-8.619336128234863,-4.576785087585449
1773231966416725000,19.00672509765625,-1.0553946495056152,-8.347725868225098,-5.037064075469971
1773231966432747300,19.022747314453124,-1.1182365417480469,-8.046964645385742,-5.492387771606445
1773231966448738000,19.038738037109376,-1.1527957916259766,-7.720639228820801,-5.935756683349609
1773231966464728600,19.054728515625,-1.1644383668899536,-7.369291305541992,-6.364591121673584
1773231966480750300,19.070750244140626,-1.1635890007019043,-6.99495267868042,-6.774002552032471
1773231966496743200,19.0867431640625,-1.1601694822311401,-6.604503631591797,-7.155762195587158
1773231966512733400,19.1027333984375,-1.1626958847045898,-6.201681137084961,-7.507177352905273
1773231966528726000,19.11872607421875,-1.179316759109497,-5.790416717529297,-7.8262810707092285
1773231966544747000,19.1347470703125,-1.2047535181045532,-5.383413791656494,-8.107887268066406
1773231966560737000,19.150737060546874,-1.2280915975570679,-5.00812292098999,-8.34151554107666
1773231966576728300,19.166728271484374,-1.254516363143921,-4.6661200523376465,-8.533692359924316
1773231966592750300,19.182750244140625,-1.293429970741272,-4.340719699859619,-8.698022842407227
1773231966608743200,19.1987431640625,-1.3440170288085938,-4.038411617279053,-8.834887504577637
1773231966624733200,19.214733154296876,-1.40121328830719,-3.7637999057769775,-8.946553230285645
1773231966640724000,19.230723876953125,-1.4652314186096191,-3.529007911682129,-9.031588554382324
1773231966656745700,19.246745849609376,-1.5373480319976807,-3.3404860496520996,-9.09110164642334
1773231966672737500,19.262737548828124,-1.6092641353607178,-3.2015883922576904,-9.128555297851562
1773231966688729300,19.278729248046876,-1.6715086698532104,-3.1172924041748047,-9.146525382995605
1773231966704750800,19.294750732421875,-1.715680480003357,-3.0880837440490723,-9.14825439453125
1773231966720742400,19.310742431640627,-1.737006425857544,-3.1103010177612305,-9.136699676513672
1773231966736731600,19.326731689453126,-1.7325350046157837,-3.185352087020874,-9.111653327941895
1773231966752754400,19.34275439453125,-1.701306939125061,-3.320070743560791,-9.06934928894043
1773231966768747000,19.3587470703125,-1.6480954885482788,-3.51366925239563,-9.006013870239258
1773231966784736800,19.37473681640625,-1.589158296585083,-3.757056951522827,-8.91793155670166
1773231966800728300,19.390728271484374,-1.5344462394714355,-4.041861534118652,-8.802228927612305
1773231966816749000,19.4067490234375,-1.4860241413116455,-4.359241485595703,-8.6578950881958
1773231966832741600,19.42274169921875,-1.437536358833313,-4.691441535949707,-8.490833282470703
1773231966848733400,19.4387333984375,-1.3832751512527466,-5.019833087921143,-8.310127258300781
1773231966864754000,19.45475390625,-1.320300579071045,-5.338002681732178,-8.119912147521973
1773231966880744200,19.470744140625,-1.244396448135376,-5.64791202545166,-7.919782638549805
1773231966896737300,19.4867373046875,-1.1522563695907593,-5.953592777252197,-7.706974029541016
1773231966912727800,19.502727783203124,-1.0420026779174805,-6.263144016265869,-7.4737958908081055
1773231966928750800,19.518750732421875,-0.9163354635238647,-6.583237648010254,-7.210526943206787
1773231966944740900,19.534740966796875,-0.786371648311615,-6.906417369842529,-6.917616844177246
1773231966960731100,19.550731201171875,-0.6631975173950195,-7.219544410705566,-6.603691101074219
1773231966976723700,19.5667236328125,-0.5569324493408203,-7.509482383728027,-6.282350063323975
1773231966992745500,19.582745361328126,-0.4745163321495056,-7.7749247550964355,-5.957834243774414
1773231967008735200,19.5987353515625,-0.41454556584358215,-8.022294998168945,-5.625060081481934
1773231967024727600,19.6147275390625,-0.3698042035102844,-8.25804328918457,-5.276209354400635
1773231967040748000,19.630748046875,-0.3341318666934967,-8.484430313110352,-4.9064435958862305
1773231967056740600,19.64674072265625,-0.3024231493473053,-8.697696685791016,-4.519847869873047
1773231967072731100,19.662731201171876,-0.27253714203834534,-8.889925956726074,-4.131021022796631
1773231967088752400,19.67875244140625,-0.24624738097190857,-9.057796478271484,-3.750479221343994
1773231967104742700,19.69474267578125,-0.22631724178791046,-9.202465057373047,-3.3813884258270264
1773231967120734700,19.710734619140624,-0.21260873973369598,-9.324980735778809,-3.028191328048706
1773231967136728000,19.72672802734375,-0.2020791620016098,-9.4266357421875,-2.695943832397461
1773231967152748500,19.74274853515625,-0.18820494413375854,-9.50838851928711,-2.3928096294403076
1773231967168739800,19.75873974609375,-0.16549159586429596,-9.571833610534668,-2.1267340183258057
1773231967184729000,19.77472900390625,-0.12671324610710144,-9.619495391845703,-1.9025392532348633
1773231967200752000,19.790752197265626,-0.06252601742744446,-9.654189109802246,-1.721373200416565
1773231967216745200,19.8067451171875,0.029847733676433563,-9.67834758758545,-1.5808558464050293
1773231967232735200,19.8227353515625,0.14294862747192383,-9.692390441894531,-1.4857734441757202
1773231967248726300,19.838726318359374,0.2628822922706604,-9.695664405822754,-1.4475377798080444
1773231967264749600,19.85474951171875,0.38072335720062256,-9.687055587768555,-1.478641390800476
1773231967280740600,19.87074072265625,0.49493399262428284,-9.665288925170898,-1.583547830581665
1773231967296731000,19.88673095703125,0.5916016101837158,-9.630138397216797,-1.7552382946014404
1773231967312752600,19.902752685546876,0.6412047147750854,-9.581009864807129,-1.9908573627471924
1773231967328744200,19.918744140625,0.6273322701454163,-9.513076782226562,-2.2974352836608887
1773231967344735700,19.93473583984375,0.5557251572608948,-9.41828441619873,-2.675349235534668
1773231967360725000,19.95072509765625,0.43394818902015686,-9.289460182189941,-3.1125571727752686
1773231967376746800,19.966746826171875,0.2702358663082123,-9.12289810180664,-3.5874927043914795
1773231967392739600,19.982739501953127,0.08358999341726303,-8.917567253112793,-4.079265117645264
1773231967408731000,19.99873095703125,-0.10484729707241058,-8.671280860900879,-4.579115867614746
1773231967424751400,20.01475146484375,-0.2750280797481537,-8.384014129638672,-5.079670429229736
1773231967440742700,20.03074267578125,-0.41503363847732544,-8.057307243347168,-5.5747599601745605
1773231967456733200,20.046733154296874,-0.5210146307945251,-7.692793846130371,-6.059693336486816
1773231967472726300,20.062726318359374,-0.5906298756599426,-7.296568393707275,-6.5254621505737305
1773231967488746500,20.07874658203125,-0.631255567073822,-6.876046657562256,-6.963613033294678
1773231967504737500,20.094737548828125,-0.6545162200927734,-6.441071033477783,-7.365773677825928
1773231967520730000,20.110730224609377,-0.6717087626457214,-5.9985880851745605,-7.728917598724365
1773231967536751400,20.12675146484375,-0.6920911073684692,-5.55873441696167,-8.049341201782227
1773231967552742100,20.1427421875,-0.7257598638534546,-5.128154277801514,-8.327406883239746
1773231967568734000,20.15873388671875,-0.7706843018531799,-4.722073078155518,-8.560285568237305
1773231967584755700,20.174755615234375,-0.8217900991439819,-4.358874797821045,-8.746159553527832
1773231967600747500,20.19074755859375,-0.8841151595115662,-4.022071361541748,-8.900093078613281
1773231967616738300,20.20673828125,-0.9511347413063049,-3.710407018661499,-9.02765941619873
1773231967632730600,20.222730712890623,-1.0158416032791138,-3.43255877494812,-9.129950523376465
1773231967648751900,20.238751953125,-1.0760829448699951,-3.1982016563415527,-9.207820892333984
1773231967664743200,20.2547431640625,-1.1349982023239136,-3.012545108795166,-9.263193130493164
1773231967680733000,20.27073291015625,-1.1937683820724487,-2.8817551136016846,-9.297354698181152
1773231967696725200,20.286725341796874,-1.2520203590393066,-2.8183627128601074,-9.309118270874023
1773231967712746800,20.302746826171877,-1.3041107654571533,-2.8329882621765137,-9.29751968383789
1773231967728738000,20.318738037109377,-1.348286509513855,-2.9286627769470215,-9.261504173278809
1773231967744729300,20.334729248046877,-1.3795610666275024,-3.0930800437927246,-9.203263282775879
1773231967760750300,20.350750244140624,-1.3910712003707886,-3.319383144378662,-9.122334480285645
1773231967776740400,20.366740234375,-1.3819280862808228,-3.6074750423431396,-9.013700485229492
1773231967792734200,20.382734130859376,-1.3572757244110107,-3.9538984298706055,-8.871012687683105
1773231967808724200,20.39872412109375,-1.3238152265548706,-4.340243816375732,-8.693687438964844
1773231967824745500,20.414745361328126,-1.284972906112671,-4.745493412017822,-8.48525333404541
1773231967840738300,20.43073828125,-1.2372345924377441,-5.14692497253418,-8.255228996276855
1773231967856727800,20.446727783203126,-1.176100254058838,-5.535747528076172,-8.008913040161133
1773231967872750000,20.46275,-1.1049329042434692,-5.905240058898926,-7.750978469848633
1773231967888740400,20.478740234375,-1.0299407243728638,-6.256300449371338,-7.481198310852051
