time,seconds_elapsed,z,y,x
1773231947708659700,0.29865966796875,0.18936823308467865,0.23029619455337524,-0.13439035415649414
1773231947724728300,0.314728271484375,0.18936823308467865,0.23029619455337524,-0.13439035415649414
1773231947740718000,0.330718017578125,0.18936823308467865,0.23029619455337524,-0.13439035415649414
1773231947756740900,0.346740966796875,0.18936823308467865,0.23029619455337524,-0.13439035415649414
1773231947772730400,0.36273046875,0.18936823308467865,0.23029619455337524,-0.13439035415649414
1773231947788738600,0.378738525390625,0.18936823308467865,0.23029619455337524,-0.13439035415649414
1773231947804714200,0.39471435546875,0.18936823308467865,0.23029619455337524,-0.13439035415649414
1773231947820736500,0.410736572265625,0.14416420459747314,-0.2669481039047241,0.1966986060142517
1773231947836728300,0.426728271484375,0.1362229436635971,-0.2223549485206604,0.1569923609495163
1773231947852720000,0.44272021484375,0.11484266817569733,-0.13072516024112701,0.09285151958465576
1773231947868739000,0.458739013671875,0.11667526513338089,0.13072516024112701,-0.033597588539123535
1773231947884732700,0.474732666015625,0.11545353382825851,0.2981022298336029,-0.10690141469240189
1773231947900723700,0.4907236328125,0.08429940044879913,0.26633724570274353,-0.08979719132184982
1773231947916714800,0.50671484375,-0.01771509274840355,0.20830504596233368,0.01771509274840355
1773231947932737000,0.522737060546875,-0.2070833146572113,0.2730567753314972,0.12828169763088226
1773231947948728000,0.53872802734375,-0.15943582355976105,0.19914206862449646,0.13439035415649414
1773231947964717300,0.55471728515625,-0.08002334833145142,0.19547687470912933,0.15760323405265808
1773231947980740600,0.57074072265625,-0.05619960278272629,0.2791654169559479,0.1459967941045761
1773231947996729600,0.5867294921875,-0.0659734457731247,0.3433062732219696,0.04214970022439957
1773231948012724000,0.602723876953125,-0.07696902006864548,0.3286454975605011,-0.06108652427792549
1773231948028713700,0.618713623046875,-0.07880161702632904,0.23579397797584534,-0.11911872029304504
1773231948044734500,0.634734375,-0.08979719132184982,0.1618792861700058,-0.08552113175392151
1773231948060726500,0.6507265625,-0.0959058403968811,0.1215621829032898,0.001832595793530345
1773231948076718600,0.666718505859375,-0.09773843735456467,0.13011430203914642,0.05009094998240471
1773231948092740900,0.682740966796875,-0.10751228034496307,0.1508837193250656,-0.003054326167330146
1773231948108731600,0.698731689453125,-0.13744467496871948,-0.2626720666885376,-0.192422553896904
1773231948124720600,0.714720703125,-0.18020524084568024,-0.34697145223617554,-0.04703662544488907
1773231948140713200,0.730713134765625,-0.1667662113904953,-0.30115658044815063,0.15271630883216858
1773231948156734700,0.746734619140625,-0.21441370248794556,-0.4440990388393402,0.4355469346046448
1773231948172727600,0.7627275390625,-0.3170390725135803,-0.40744712948799133,0.48869219422340393
1773231948188718000,0.778718017578125,-0.3646865487098694,-0.28527405858039856,0.3988949954509735
1773231948204738000,0.794738037109375,-0.36224308609962463,-0.11850785464048386,0.1661553531885147
1773231948220729000,0.81072900390625,-0.18081611394882202,0.1918116807937622,-0.07391469180583954
1773231948236721400,0.826721435546875,0.06902777403593063,0.5106833577156067,-0.17470745742321014
1773231948252714200,0.84271435546875,0.27061331272125244,0.5406157374382019,0.01466076634824276
1773231948268734700,0.858734619140625,0.30970868468284607,0.48685958981513977,0.40683624148368835
1773231948284724200,0.87472412109375,0.33597588539123535,0.6597344875335693,0.8894197940826416
1773231948300717600,0.890717529296875,0.394618958234787,1.0500773191452026,1.1814134120941162
1773231948316737000,0.906737060546875,0.45204028487205505,1.539380431175232,1.3371840715408325
1773231948332731100,0.922731201171875,0.44104471802711487,1.76723313331604,1.3359622955322266
1773231948348722000,0.938721923828125,0.3903428912162781,1.8307631015777588,1.224173903465271
1773231948364741600,0.95474169921875,0.35735616087913513,1.6578882932662964,1.0323622226715088
1773231948380734200,0.970734130859375,0.19364428520202637,1.0067058801651,0.5900958180427551
1773231948396724500,0.986724365234375,0.05375614017248154,0.9150761365890503,0.12034045159816742
1773231948412717800,1.0027177734375,0.022602014243602753,0.7586946487426758,-0.37140607833862305
1773231948428738600,1.018738525390625,0.00366519158706069,0.43188172578811646,-0.655458390712738
1773231948444730000,1.034730224609375,0.14416420459747314,-0.06169738993048668,-0.7134906053543091
1773231948460721000,1.050720947265625,0.3579670190811157,-0.2968805134296417,-0.6023131608963013
1773231948476710100,1.066710205078125,0.7641924023628235,-0.4544837474822998,-0.4599815309047699
1773231948492733400,1.0827333984375,1.0409144163131714,-0.5461135506629944,-0.4648684561252594
1773231948508725200,1.098725341796875,0.8460483551025391,-0.6065891981124878,-0.5357288122177124
1773231948524715500,1.114715576171875,0.40744712948799133,-0.5607742667198181,-0.608421802520752
1773231948540738300,1.13073828125,0.02626720629632473,-0.4612032473087311,-0.7678576111793518
1773231948556727600,1.1467275390625,-0.11362093687057495,-0.3084869384765625,-0.9999864101409912
1773231948572722200,1.16272216796875,-0.19608774781227112,-0.10445795953273773,-1.1325441598892212
1773231948588741400,1.178741455078125,-0.49296826124191284,-0.0403171069920063,-1.0213667154312134
1773231948604732200,1.194732177734375,-0.7715228199958801,-0.3066543638706207,-0.7043276429176331
1773231948620725000,1.21072509765625,-0.7617489695549011,-0.6511823534965515,-0.3781255781650543
1773231948636714000,1.2267138671875,-0.503963828086853,-0.7360926270484924,-0.0659734457731247
1773231948652739000,1.242739013671875,-0.251676470041275,-0.394618958234787,0.13011430203914642
1773231948668728800,1.258728759765625,-0.09285151958465576,0.1869247704744339,0.3323107063770294
1773231948684719900,1.274719970703125,-0.0555887371301651,0.5864306092262268,0.4544837474822998
1773231948700740400,1.290740234375,0.02382374368607998,0.759916365146637,0.4593706727027893
1773231948716731600,1.306731689453125,0.10262536257505417,0.6487388610839844,0.2987131178379059
1773231948732725500,1.3227255859375,0.10934487730264664,0.30543261766433716,0.003054326167330146
1773231948748716500,1.338716552734375,0.07391469180583954,-0.16004669666290283,-0.3683517575263977
1773231948764735200,1.3547353515625,0.01160643994808197,-0.5461135506629944,-0.6230825781822205
1773231948780728600,1.370728515625,0.01710422709584236,-0.7452555894851685,-0.6444628238677979
1773231948796717600,1.386717529296875,-0.04092797264456749,-0.9077457785606384,-0.4813618063926697
1773231948812742100,1.4027421875,-0.1918116807937622,-0.9926560521125793,-0.2919935882091522
1773231948828732200,1.418732177734375,-0.26939156651496887,-1.0054842233657837,-0.05192354694008827
1773231948844736300,1.434736328125,-0.22479841113090515,-0.7739662528038025,0.14049901068210602
1773231948860713500,1.45071337890625,-0.12095131725072861,-0.31031954288482666,0.2638937830924988
1773231948876735500,1.466735595703125,-0.03298672288656235,0.09896016865968704,0.22113321721553802
1773231948892728600,1.482728515625,0.07757988572120667,0.26633724570274353,0.13866640627384186
1773231948908719000,1.498718994140625,0.08796459436416626,0.11423180252313614,0.1514945775270462
1773231948924740900,1.514740966796875,0,-0.19975294172763824,0.23396138846874237
1773231948940732200,1.530732177734375,-0.0910189226269722,-0.41599923372268677,0.3066543638706207
1773231948956723700,1.5467236328125,-0.13561208546161652,-0.4495968222618103,0.3280346393585205
1773231948972715300,1.56271533203125,-0.10445795953273773,-0.3323107063770294,0.30054569244384766
1773231948988737300,1.5787373046875,-0.01771509274840355,-0.17043140530586243,0.19792033731937408
1773231949004726300,1.594726318359375,0.06414084881544113,-0.09834930300712585,0.054367005825042725
1773231949020718800,1.61071875,0.10384709388017654,-0.04459316283464432,-0.1215621829032898
1773231949036740000,1.626739990234375,0.06414084881544113,-0.03726277872920036,-0.2223549485206604
1773231949052730000,1.642730224609375,0.01466076634824276,-0.048258353024721146,-0.2724458873271942
1773231949068721700,1.6587216796875,0.021380282938480377,-0.0959058403968811,-0.31154128909111023
1773231949084714500,1.674714599609375,0.02626720629632473,-0.12828169763088226,-0.3604104816913605
1773231949100736000,1.690736083984375,-0.009162978269159794,-0.1368338167667389,-0.33475416898727417
1773231949116727000,1.70672705078125,-0.09957103431224823,-0.1466076523065567,-0.23579397797584534
1773231949132719600,1.7227197265625,-0.09712757170200348,-0.22296582162380219,-0.08124507963657379
1773231949148738800,1.73873876953125,-0.030543262138962746,-0.2736676335334778,0.11972958594560623
1773231949164731000,1.75473095703125,-0.02687807008624077,-0.22357667982578278,0.24984388053417206
1773231949180722400,1.770722412109375,-0.09407325088977814,-0.08979719132184982,0.29138273000717163
1773231949196713500,1.78671337890625,-0.152105450630188,-0.08185594528913498,0.2528982162475586
1773231949212736000,1.802736083984375,-0.18020524084568024,-0.1362229436635971,0.16004669666290283
1773231949228727800,1.818727783203125,-0.2217440903186798,0.02687807008624077,0.006108652334660292
1773231949244719400,1.83471923828125,-0.294437050819397,0.5277875661849976,-0.30115658044815063
1773231949260739300,1.8507392578125,-0.313373863697052,0.778853178024292,-0.4758640229701996
1773231949276728800,1.866728759765625,-0.2571742534637451,0.6591235995292664,-0.3433062732219696
1773231949292722400,1.882722412109375,-0.2119702398777008,0.2816088795661926,-0.02076941914856434
1773231949308741400,1.898741455078125,-0.16920967400074005,-0.1661553531885147,0.2840523421764374
1773231949324733000,1.91473291015625,-0.15454891324043274,-0.303600013256073,0.32009339332580566
1773231949340724200,1.93072412109375,-0.1918116807937622,-0.2217440903186798,0.09468411654233932
1773231949356716800,1.946716796875,-0.19853121042251587,-0.06475171446800232,-0.15454891324043274
1773231949372740000,1.962739990234375,-0.19303341209888458,0.18631389737129211,-0.375071257352829
1773231949388728600,1.978728515625,-0.16798794269561768,0.2767219543457031,-0.4660901725292206
1773231949404719600,1.9947197265625,-0.13255776464939117,0.13927727937698364,-0.46181413531303406
1773231949420711200,2.010711181640625,-0.12034045159816742,-0.06291911751031876,-0.41172316670417786
1773231949436732700,2.026732666015625,-0.09834930300712585,-0.25106561183929443,-0.33719760179519653
1773231949452726000,2.04272607421875,-0.0757472887635231,-0.3219259977340698,-0.2535090744495392
1773231949468716300,2.05871630859375,-0.054367005825042725,-0.045204028487205505,-0.13988813757896423
1773231949484736800,2.07473681640625,0.009162978269159794,0.14355333149433136,-0.04703662544488907
1773231949500729600,2.0907294921875,-0.03176499158143997,0.3029891550540924,0.0708603709936142
1773231949516720600,2.106720703125,-0.025045474991202354,0.2528982162475586,0.1319468915462494
1773231949532713000,2.122712890625,-0.08552113175392151,0.07819075137376785,0.1111774742603302
1773231949548734000,2.13873388671875,-0.12461651116609573,-0.02076941914856434,0.003054326167330146
1773231949564723000,2.154722900390625,-0.1508837193250656,-0.056810468435287476,-0.13072516024112701
1773231949580716300,2.17071630859375,-0.11972958594560623,-0.039095375686883926,-0.24678955972194672
1773231949596738000,2.186738037109375,-0.07513642311096191,-0.08368854224681854,-0.24190263450145721
1773231949612729300,2.202729248046875,-0.04886921867728233,-0.1319468915462494,-0.10262536257505417
1773231949628717800,2.2187177734375,-0.021991148591041565,-0.07330382615327835,0.03481931984424591
1773231949644741400,2.234741455078125,0.005497787147760391,0.16065755486488342,0.09834930300712585
1773231949660733400,2.2507333984375,-0.00855211354792118,0.34025195240974426,0.06169738993048668
1773231949676724700,2.266724853515625,-0.015882495790719986,0.42210787534713745,-0.05742133408784866
1773231949692716500,2.282716552734375,0.003054326167330146,0.3530801236629486,-0.2064724564552307
1773231949708737500,2.298737548828125,-0.02015855349600315,0.1820378452539444,-0.39095374941825867
1773231949724728800,2.314728759765625,-0.019547687843441963,0.07391469180583954,-0.5253441333770752
1773231949740719900,2.330719970703125,0.04581489413976669,0.13866640627384186,-0.5858197808265686
1773231949756740000,2.346739990234375,0.12767083942890167,0.24373523890972137,-0.4996877610683441
1773231949772733700,2.362733642578125,0.19975294172763824,0.21135938167572021,-0.2168571650981903
1773231949788721700,2.3787216796875,0.2480112910270691,0.060475658625364304,0.10995574295520782
1773231949804715300,2.39471533203125,0.19914206862449646,-0.08796459436416626,0.4251621961593628
1773231949820736500,2.410736572265625,0.13866640627384186,-0.17409659922122955,0.5778785347938538
1773231949836726800,2.426726806640625,0.13377949595451355,-0.21441370248794556,0.6420193910598755
1773231949852718800,2.44271875,0.19547687470912933,-0.06475171446800232,0.5772676467895508
1773231949868740900,2.458740966796875,0.24862214922904968,0.19914206862449646,0.3090978264808655
1773231949884731400,2.4747314453125,0.23640485107898712,0.2779437005519867,0.018936822190880775
1773231949900721700,2.4907216796875,0.2070833146572113,0.19914206862449646,-0.14782938361167908
1773231949916713700,2.506713623046875,0.1612684279680252,0.01466076634824276,-0.01771509274840355
1773231949932737800,2.52273779296875,0.11850785464048386,-0.17348572611808777,0.2889392673969269
1773231949948727300,2.538727294921875,0.1368338167667389,-0.11789698898792267,0.45326200127601624
1773231949964717600,2.554717529296875,0.18936823308467865,0.18997909128665924,0.48685958981513977
1773231949980740900,2.570740966796875,0.23335053026676178,0.523511528968811,0.43188172578811646
1773231949996730600,2.586730712890625,0.2278527319431305,0.7428121566772461,0.3677408695220947
1773231950012723500,2.602723388671875,0.1722639948129654,0.7812966704368591,0.29016098380088806
1773231950028713700,2.618713623046875,0.15943582355976105,0.7104362845420837,0.17531833052635193
1773231950044736000,2.634736083984375,0.1661553531885147,0.6041457056999207,0.03787364438176155
1773231950060725500,2.6507255859375,0.13866640627384186,0.47708576917648315,-0.08857546001672745
1773231950076716300,2.66671630859375,0.0959058403968811,0.36529740691185,-0.11789698898792267
1773231950092741400,2.682741455078125,0.02871066704392433,0.3494149148464203,-0.04703662544488907
1773231950108731100,2.698731201171875,0.027488935738801956,0.4105014503002167,0.051312681287527084
1773231950124724000,2.714723876953125,0.0403171069920063,0.475253164768219,0.22846360504627228
1773231950140712400,2.73071240234375,0.006719517521560192,0.2981022298336029,0.4434881806373596
1773231950156735000,2.74673486328125,-0.0024434609804302454,0.1411098688840866,0.6701191663742065
1773231950172726500,2.7627265625,-0.025045474991202354,0.1814269721508026,0.7782423496246338
1773231950188718000,2.778718017578125,-0.11423180252313614,0.2730567753314972,0.7770205736160278
1773231950204739300,2.7947392578125,-0.19975294172763824,0.2981022298336029,0.7238753437995911
1773231950220730600,2.810730712890625,-0.33658674359321594,0.3585779070854187,0.6951646208763123
1773231950236720600,2.826720703125,-0.44226643443107605,0.5839871764183044,0.6212499737739563
1773231950252715000,2.842715087890625,-0.43676865100860596,0.846659243106842,0.43799036741256714
1773231950268735200,2.8587353515625,-0.29993483424186707,0.9248499870300293,0.2730567753314972
1773231950284724200,2.87472412109375,0.01710422709584236,0.7464773058891296,0.24129177629947662
1773231950300717800,2.8907177734375,0.24373523890972137,0.44776421785354614,0.36102136969566345
1773231950316738800,2.90673876953125,0.2370157092809677,0.21807889640331268,0.4807509481906891
1773231950332730000,2.922730224609375,0.08979719132184982,0.2730567753314972,0.44104471802711487
1773231950348719900,2.938719970703125,-0.03787364438176155,1.0384708642959595,0.4550946056842804
1773231950364713200,2.954713134765625,-0.06108652427792549,1.5570955276489258,0.35552358627319336
1773231950380733700,2.970733642578125,0.001832595793530345,1.76723313331604,0.3500257730484009
1773231950396725800,2.986725830078125,0.08307767659425735,1.8918496370315552,0.33536502718925476
1773231950412717800,3.0027177734375,0.11056660860776901,1.7544050216674805,0.32559117674827576
1773231950428738300,3.01873828125,0.16493362188339233,1.5638149976730347,0.2528982162475586
1773231950444728000,3.03472802734375,0.24068090319633484,1.4312572479248047,0.14782938361167908
1773231950460721200,3.05072119140625,0.31031954288482666,1.094059705734253,-0.05497787147760391
1773231950476743000,3.066742919921875,0.23029619455337524,0.8790351152420044,-0.17898350954055786
1773231950492735000,3.08273486328125,0.039095375686883926,1.2675453424453735,-0.3274237811565399
1773231950508725500,3.0987255859375,-0.04398229718208313,2.1001546382904053,-0.152105450630188
1773231950524716500,3.114716552734375,-0.0806342139840126,2.5705208778381348,0.16432274878025055
1773231950540736500,3.130736572265625,0.006108652334660292,2.640770435333252,0.48380526900291443
1773231950556729300,3.146729248046875,0.11728613078594208,2.6059510707855225,0.45265114307403564
1773231950572721400,3.162721435546875,0.10567969083786011,2.6426031589508057,0.28649580478668213
1773231950588740400,3.178740234375,0.01466076634824276,2.747061014175415,0.3341432809829712
1773231950604732200,3.194732177734375,-0.15271630883216858,3.011565685272217,0.5491678714752197
1773231950620724700,3.210724853515625,-0.37201693654060364,3.1025846004486084,0.6212499737739563
1773231950636716000,3.226716064453125,-0.7922922372817993,3.0060677528381348,0.4447098970413208
1773231950652738600,3.242738525390625,-1.0604621171951294,3.000570058822632,0.24862214922904968
1773231950668730000,3.258730224609375,-1.2180652618408203,3.065321683883667,0.25595253705978394
1773231950684720400,3.274720458984375,-1.2944234609603882,3.165503740310669,0.34758231043815613
1773231950700742000,3.290741943359375,-1.6169602870941162,3.181997060775757,0.10201449692249298
1773231950716733200,3.306733154296875,-2.0928242206573486,2.9223792552948,-0.5522221922874451
1773231950732725200,3.322725341796875,-2.4055874347686768,2.3964242935180664,-1.511891484260559
1773231950748715500,3.338715576171875,-2.568077564239502,1.9315558671951294,-1.9566013813018799
1773231950764736800,3.35473681640625,-2.682920217514038,1.7599027156829834,-2.032959461212158
1773231950780726800,3.370726806640625,-2.8038713932037354,1.9969184398651123,-1.9181169271469116
1773231950796718600,3.386718505859375,-3.0250046253204346,2.4911084175109863,-1.6774359941482544
1773231950812742000,3.402741943359375,-3.274848461151123,2.9602530002593994,-1.4117095470428467
1773231950828732200,3.418732177734375,-3.6242635250091553,3.2980613708496094,-1.1215485334396362
1773231950844721700,3.4347216796875,-3.847229242324829,3.3903021812438965,-0.9040805697441101
1773231950860715000,3.450715087890625,-4.118453502655029,3.188105821609497,-0.7391469478607178
1773231950876736800,3.46673681640625,-4.3365325927734375,2.833193063735962,-0.7312057018280029
1773231950892727800,3.482727783203125,-4.55033540725708,2.308459758758545,-0.7837401032447815
1773231950908720600,3.498720703125,-4.5546112060546875,1.9168951511383057,-0.7843509912490845
1773231950924740900,3.514740966796875,-4.174042224884033,1.6139060258865356,-0.684779942035675
1773231950940732200,3.530732177734375,-3.581502914428711,1.3524556159973145,-0.5839871764183044
1773231950956722700,3.54672265625,-2.8374691009521484,1.0366383790969849,-0.5962044596672058
1773231950972716000,3.562716064453125,-2.3408355712890625,0.7929030656814575,-0.6426302194595337
1773231950988737300,3.5787373046875,-1.966986060142517,0.5900958180427551,-0.6688974499702454
1773231951004727600,3.5947275390625,-1.7788395881652832,0.47830748558044434,-0.6860016584396362
1773231951020718800,3.61071875,-1.6285667419433594,0.2877175211906433,-0.7263187766075134
1773231951036738000,3.626738037109375,-1.4801265001296997,0.09712757170200348,-0.8130616545677185
1773231951052732200,3.642732177734375,-1.3548991680145264,-0.1569923609495163,-0.9028588533401489
1773231951068722700,3.65872265625,-1.2614367008209229,-0.3066543638706207,-0.9297369122505188
1773231951084713700,3.674713623046875,-1.1410962343215942,-0.34025195240974426,-0.8943067193031311
1773231951100733700,3.690733642578125,-1.0415252447128296,-0.303600013256073,-0.8448266386985779
1773231951116726800,3.706726806640625,-0.9523389339447021,-0.23945917189121246,-0.789237916469574
1773231951132718600,3.722718505859375,-0.9095783233642578,-0.23884831368923187,-0.740368664264679
1773231951148740000,3.738739990234375,-0.8918632864952087,-0.2278527319431305,-0.6524040699005127
1773231951164729000,3.75472900390625,-0.8881980776786804,-0.18020524084568024,-0.5088507533073425
1773231951180720400,3.770720458984375,-0.7929030656814575,-0.08674286305904388,-0.26450464129447937
1773231951196713500,3.78671337890625,-0.6151412725448608,-0.04459316283464432,-0.06902777403593063
1773231951212736000,3.802736083984375,-0.35552358627319336,-0.04703662544488907,0.048258353024721146
1773231951228727600,3.8187275390625,-0.1362229436635971,-0.11789698898792267,0.12278391420841217
1773231951244717800,3.8347177734375,0.13255776464939117,-0.2981022298336029,0.30970868468284607
1773231951260738800,3.85073876953125,0.36590829491615295,-0.34697145223617554,0.6389650702476501
1773231951276728800,3.866728759765625,0.6817256212234497,-0.22540926933288574,1.1191051006317139
1773231951292722700,3.88272265625,1.024420976638794,-0.018325956538319588,1.4385876655578613
1773231951308713200,3.898713134765625,1.576032280921936,0.17531833052635193,1.6126842498779297
1773231951324734700,3.914734619140625,2.155132532119751,0.2632829248905182,1.6505578756332397
1773231951340726000,3.93072607421875,2.814256191253662,0.26450464129447937,1.6169602870941162
1773231951356715000,3.946715087890625,3.2956180572509766,0.13561208546161652,1.5424346923828125
1773231951372739000,3.962739013671875,3.6725218296051025,-0.18814650177955627,1.4941763877868652
1773231951388731000,3.97873095703125,3.8741073608398438,-0.484416127204895,1.4978415966033936
1773231951404719400,3.99471923828125,4.067140579223633,-0.7672467231750488,1.5167783498764038
1773231951420713200,4.010713134765625,4.180761814117432,-0.9443976879119873,1.5241087675094604
1773231951436734500,4.026734375,4.235739707946777,-1.0604621171951294,1.5308283567428589
1773231951452724700,4.042724853515625,4.242459297180176,-1.0500773191452026,1.528384804725647
1773231951468714800,4.05871484375,4.2308526039123535,-0.9963212013244629,1.4819591045379639
1773231951484738300,4.07473828125,4.166100978851318,-0.9071348905563354,1.4214833974838257
1773231951500729000,4.09072900390625,3.986506700515747,-0.7757988572120667,1.36650550365448
1773231951516721000,4.106720947265625,3.735440969467163,-0.6310238242149353,1.3329079151153564
1773231951532743400,4.122743408203125,3.408627986907959,-0.4599815309047699,1.2974777221679688
1773231951548734200,4.138734130859375,3.0744848251342773,-0.304210901260376,1.2400563955307007
1773231951564723500,4.154723388671875,2.786156415939331,-0.2064724564552307,1.1643091440200806
1773231951580716800,4.170716796875,2.4245240688323975,-0.11911872029304504,1.037249207496643
1773231951596738000,4.186738037109375,2.072054862976074,-0.07757988572120667,0.9150761365890503
1773231951612730000,4.202730224609375,1.6597208976745605,-0.028099801391363144,0.789237916469574
1773231951628721000,4.218720947265625,1.2760975360870361,0.08368854224681854,0.6988298296928406
1773231951644741000,4.2347412109375,0.8240572214126587,0.2174680233001709,0.5900958180427551
1773231951660731600,4.250731689453125,0.41599923372268677,0.33169981837272644,0.4715879559516907
1773231951676723200,4.26672314453125,-0.1062905490398407,0.4544837474822998,0.294437050819397
1773231951692716300,4.28271630859375,-0.5577199459075928,0.5204572081565857,0.08735372871160507
1773231951708737300,4.2987373046875,-1.0903944969177246,0.5717698931694031,-0.16982053220272064
1773231951724728000,4.31472802734375,-1.550986886024475,0.5900958180427551,-0.32986724376678467
1773231951740720000,4.33072021484375,-2.0512855052948,0.5955936312675476,-0.42760565876960754
1773231951756741400,4.346741455078125,-2.4275784492492676,0.6065891981124878,-0.4917465150356293
1773231951772733700,4.362733642578125,-2.811201810836792,0.6536257863044739,-0.6010913848876953
1773231951788722700,4.37872265625,-3.1050281524658203,0.6963863968849182,-0.7281513810157776
1773231951804715800,4.3947158203125,-3.4049627780914307,0.7073819637298584,-0.8906415104866028
1773231951820736800,4.41073681640625,-3.5833356380462646,0.685390830039978,-0.9834930300712585
1773231951836726500,4.4267265625,-3.6523633003234863,0.5907067060470581,-1.009149432182312
1773231951852720400,4.442720458984375,-3.5888333320617676,0.4282165467739105,-0.9480628371238708
1773231951868741600,4.45874169921875,-3.4465017318725586,0.2076941877603531,-0.8014551997184753
1773231951884731400,4.4747314453125,-3.305391788482666,0.0861319974064827,-0.6285803318023682
1773231951900723500,4.490723388671875,-3.156951665878296,0.10506882518529892,-0.40133845806121826
1773231951916712400,4.50671240234375,-3.0060677528381348,0.21441370248794556,-0.22357667982578278
1773231951932737300,4.5227373046875,-2.813645362854004,0.35246923565864563,-0.13072516024112701
1773231951948726300,4.538726318359375,-2.662761688232422,0.4031710624694824,-0.1765400618314743
1773231951964718800,4.55471875,-2.5393667221069336,0.4001167416572571,-0.3194825351238251
1773231951980739600,4.570739501953125,-2.526538610458374,0.38117989897727966,-0.4495968222618103
1773231951996729600,4.5867294921875,-2.5729644298553467,0.323147714138031,-0.5974262356758118
1773231952012724500,4.602724365234375,-2.5949554443359375,0.27550023794174194,-0.7183775305747986
1773231952028713700,4.618713623046875,-2.5705208778381348,0.21502456068992615,-0.8497135639190674
1773231952044736800,4.63473681640625,-2.500882387161255,0.16798794269561768,-0.9260717034339905
1773231952060727600,4.6507275390625,-2.3884830474853516,0.1215621829032898,-0.9810495972633362
1773231952076716000,4.666716064453125,-2.2656991481781006,0.09346238523721695,-1.0219775438308716
1773231952092740900,4.682740966796875,-2.0977113246917725,0.08368854224681854,-1.0458012819290161
1773231952108731000,4.69873095703125,-1.9663752317428589,0.0861319974064827,-1.036027431488037
1773231952124722200,4.71472216796875,-1.7843374013900757,0.08307767659425735,-1.0024298429489136
1773231952140713700,4.730713623046875,-1.5894713401794434,0.04642575979232788,-0.9853256344795227
1773231952156735200,4.7467353515625,-1.340238332748413,-0.021380282938480377,-0.9633345007896423
1773231952172728600,4.762728515625,-1.1380419731140137,-0.07757988572120667,-0.9077457785606384
1773231952188716300,4.77871630859375,-0.9046914577484131,-0.09162978827953339,-0.7910705208778381
1773231952204739800,4.79473974609375,-0.6743952035903931,-0.13439035415649414,-0.6805039048194885
1773231952220732200,4.810732177734375,-0.3933972120285034,-0.17531833052635193,-0.5363397002220154
1773231952236723000,4.826722900390625,-0.11545353382825851,-0.2431243658065796,-0.3628539443016052
1773231952252743400,4.842743408203125,0.2681698501110077,-0.33108896017074585,-0.06658431142568588
1773231952268733700,4.858733642578125,0.6401867866516113,-0.36590829491615295,0.26511552929878235
1773231952284726300,4.874726318359375,1.1582005023956299,-0.3274237811565399,0.607810914516449
1773231952300715300,4.89071533203125,1.6505578756332397,-0.31093040108680725,0.7586946487426758
1773231952316737800,4.90673779296875,2.2156083583831787,-0.34574973583221436,0.8515461683273315
1773231952332731400,4.9227314453125,2.6395487785339355,-0.37690386176109314,0.950506329536438
1773231952348723200,4.93872314453125,3.0445523262023926,-0.4355469346046448,1.054964303970337
1773231952364712700,4.954712646484375,3.3206634521484375,-0.4948008358478546,1.0989465713500977
1773231952380734200,4.970734130859375,3.596163749694824,-0.6139195561408997,1.1087204217910767
1773231952396723700,4.9867236328125,3.7959165573120117,-0.7550294399261475,1.1172724962234497
1773231952412717600,5.002717529296875,4.03598690032959,-0.9077457785606384,1.1288789510726929
1773231952428738600,5.018738525390625,4.222911357879639,-0.9993755221366882,1.1465940475463867
1773231952444729900,5.034729736328125,4.388455867767334,-1.0018190145492554,1.2577714920043945
1773231952460721000,5.050720947265625,4.397007942199707,-0.8943067193031311,1.3561208248138428
1773231952476741600,5.06674169921875,4.263228416442871,-0.6743952035903931,1.510058879852295
1773231952492733400,5.0827333984375,4.1160101890563965,-0.46364670991897583,1.6383405923843384
1773231952508723700,5.0987236328125,3.8765509128570557,-0.2791654169559479,1.7330247163772583
1773231952524716500,5.114716552734375,3.6224308013916016,-0.14233160018920898,1.793500304222107
1773231952540738000,5.130738037109375,3.3237178325653076,-0.0354301854968071,1.8472565412521362
1773231952556728000,5.14672802734375,3.0909781455993652,0.010995574295520782,1.832595705986023
1773231952572721000,5.162720947265625,2.839301586151123,0.02626720629632473,1.737911581993103
1773231952588743200,5.1787431640625,2.6364943981170654,0.003054326167330146,1.6114624738693237
1773231952604733200,5.194733154296875,2.2986860275268555,-0.003054326167330146,1.444696307182312
1773231952620725800,5.210725830078125,1.940108060836792,-0.0024434609804302454,1.3084733486175537
1773231952636716300,5.22671630859375,1.4697418212890625,0.05864306539297104,1.1594222784042358
1773231952652738800,5.24273876953125,1.0403034687042236,0.14782938361167908,1.0421360731124878
1773231952668729900,5.258729736328125,0.5308418869972229,0.2742784917354584,0.8985827565193176
1773231952684718600,5.274718505859375,0.10995574295520782,0.3897320330142975,0.7360926270484924
1773231952700740600,5.29074072265625,-0.39217549562454224,0.48197266459465027,0.45692721009254456
1773231952716732700,5.306732666015625,-0.8417723178863525,0.485027015209198,0.19547687470912933
1773231952732726000,5.32272607421875,-1.3506230115890503,0.36102136969566345,-0.06902777403593063
1773231952748714800,5.33871484375,-1.7776178121566772,0.26083946228027344,-0.20525072515010834
1773231952764736800,5.35473681640625,-2.2149972915649414,0.19425514340400696,-0.3029891550540924
1773231952780728000,5.37072802734375,-2.5363125801086426,0.19425514340400696,-0.39095374941825867
1773231952796718800,5.38671875,-2.83074951171875,0.18081611394882202,-0.513126790523529
1773231952812742400,5.402742431640625,-3.0329458713531494,0.12034045159816742,-0.5900958180427551
1773231952828731400,5.4187314453125,-3.1807754039764404,0.021991148591041565,-0.5711590051651001
1773231952844723000,5.434722900390625,-3.2039883136749268,-0.06658431142568588,-0.4605923891067505
1773231952860715000,5.450715087890625,-3.143512487411499,-0.1270599663257599,-0.2730567753314972
1773231952876736300,5.466736328125,-3.0280590057373047,-0.09957103431224823,-0.10445795953273773
1773231952892728300,5.482728271484375,-2.948035717010498,0.02687807008624077,0.036041051149368286
1773231952908717000,5.498717041015625,-2.9297096729278564,0.15271630883216858,0.1007927656173706
1773231952924740400,5.514740234375,-2.875342607498169,0.24495697021484375,0.11301007121801376
1773231952940732000,5.53073193359375,-2.785545587539673,0.24678955972194672,0.06841690838336945
1773231952956124000,5.5461240234375,-2.629163980484009,0.15332718193531036,-0.04092797264456749
1773231952972653000,5.562653076171875,-2.4917192459106445,-0.007941247895359993,-0.19425514340400696
1773231952988357000,5.578357177734375,-2.4025330543518066,-0.20341812074184418,-0.4153883755207062
1773231953004664600,5.59466455078125,-2.4025330543518066,-0.20341812074184418,-0.4153883755207062
1773231953020655900,5.61065576171875,-2.4025330543518066,-0.20341812074184418,-0.4153883755207062
1773231953036676600,5.626676513671875,-2.4025330543518066,-0.20341812074184418,-0.4153883755207062
1773231953052669700,5.642669677734375,-2.4025330543518066,-0.20341812074184418,-0.4153883755207062
1773231953068675000,5.658675048828125,-2.4025330543518066,-0.20341812074184418,-0.4153883755207062
1773231953084651300,5.6746513671875,-2.4025330543518066,-0.20341812074184418,-0.4153883755207062
1773231953100670700,5.690670654296875,-2.4025330543518066,-0.20341812074184418,-0.4153883755207062
1773231953116664600,5.70666455078125,-2.4025330543518066,-0.20341812074184418,-0.4153883755207062
1773231953132655600,5.722655517578125,-2.0873265266418457,-0.4147774875164032,-0.8228355050086975
1773231953148675600,5.738675537109375,-1.8930714130401611,-0.35613444447517395,-0.7996225953102112
1773231953164668200,5.754668212890625,-1.6468926668167114,-0.3139847218990326,-0.7855727076530457
1773231953180659700,5.77065966796875,-1.3994922637939453,-0.25106561183929443,-0.7330383062362671
1773231953196648400,5.7866484375,-1.1465940475463867,-0.1716531366109848,-0.6505714654922485
1773231953212671700,5.802671630859375,-0.9053022861480713,-0.04214970022439957,-0.5766568183898926
1773231953228662500,5.81866259765625,-0.6053674817085266,0.0507018156349659,-0.5057964324951172
1773231953244654600,5.834654541015625,-0.2272418737411499,0.06841690838336945,-0.35063666105270386
1773231953260676000,5.850676025390625,0.20525072515010834,0.0910189226269722,-0.07391469180583954
1773231953276666400,5.866666259765625,0.6841690540313721,0.17043140530586243,0.21135938167572021
1773231953292659700,5.88265966796875,1.228450059890747,0.2834414839744568,0.3744603991508484
1773231953308650800,5.898650634765625,1.8136589527130127,0.31154128909111023,0.4434881806373596
1773231953324670200,5.914670166015625,2.3573288917541504,0.27611109614372253,0.48380526900291443
1773231953340661200,5.9306611328125,2.794708490371704,0.2119702398777008,0.5424483418464661
1773231953356653800,5.94665380859375,3.1001410484313965,0.09896016865968704,0.6304129362106323
1773231953372676400,5.96267626953125,3.306002616882324,-0.013439035043120384,0.7250970602035522
1773231953388666600,5.97866650390625,3.4831535816192627,-0.0806342139840126,0.7922922372817993
1773231953404658000,5.994657958984375,3.709784746170044,-0.13439035415649414,0.769690215587616
1773231953420647200,6.010647216796875,3.9370265007019043,-0.21380282938480377,0.6646214127540588
1773231953436668700,6.026668701171875,4.101349353790283,-0.2535090744495392,0.5943718552589417
1773231953452662500,6.04266259765625,4.1715989112854,-0.2535090744495392,0.6090326309204102
1773231953468653600,6.058653564453125,4.144720554351807,-0.17898350954055786,0.7122688889503479
1773231953484673000,6.074673095703125,4.023769378662109,0.01160643994808197,0.8912523984909058
1773231953500665300,6.090665283203125,3.8478400707244873,0.2028072625398636,1.0610729455947876
1773231953516655000,6.106655029296875,3.645643711090088,0.37751471996307373,1.178359031677246
1773231953532679000,6.122678955078125,3.4214563369750977,0.4966334402561188,1.2021827697753906
1773231953548669000,6.1386689453125,3.1844406127929688,0.5479460954666138,1.1527026891708374
1773231953564661000,6.154660888671875,2.9321532249450684,0.543059229850769,1.054964303970337
1773231953580651800,6.17065185546875,2.651766061782837,0.5088507533073425,0.9456194043159485
1773231953596672000,6.186672119140625,2.325563907623291,0.44837507605552673,0.8533787727355957
1773231953612664300,6.202664306640625,1.9437731504440308,0.3781255781650543,0.7867944240570068
1773231953628655900,6.21865576171875,1.5241087675094604,0.35674530267715454,0.7220427393913269
1773231953644676600,6.234676513671875,1.0891727209091187,0.33658674359321594,0.645684540271759
1773231953660668200,6.250668212890625,0.655458390712738,0.33169981837272644,0.5577199459075928
1773231953676658700,6.26665869140625,0.22113321721553802,0.3341432809829712,0.44226643443107605
1773231953692651300,6.2826513671875,-0.23945917189121246,0.3127630054950714,0.29016098380088806
1773231953708673000,6.298673095703125,-0.7489207983016968,0.2840523421764374,0.09529497474431992
1773231953724664300,6.314664306640625,-1.2394455671310425,0.26022860407829285,-0.10506882518529892
1773231953740656600,6.33065673828125,-1.613295078277588,0.19975294172763824,-0.30115658044815063
1773231953756676600,6.346676513671875,-1.9156733751296997,0.09040805697441101,-0.46547931432724
1773231953772667600,6.362667724609375,-2.163073778152466,-0.04337143152952194,-0.5858197808265686
1773231953788660200,6.37866015625,-2.395813465118408,-0.17898350954055786,-0.6829473376274109
1773231953804650500,6.394650390625,-2.593733787536621,-0.32009339332580566,-0.7415903806686401
1773231953820670500,6.41067041015625,-2.7043004035949707,-0.4605923891067505,-0.7538077235221863
1773231953836661500,6.42666162109375,-2.669481039047241,-0.6102544069290161,-0.7373143434524536
1773231953852654800,6.44265478515625,-2.5332581996917725,-0.7617489695549011,-0.7183775305747986
1773231953868674300,6.45867431640625,-2.431854486465454,-0.9071348905563354,-0.7000515460968018
1773231953884666400,6.474666259765625,-2.41719388961792,-0.9590584635734558,-0.6206390857696533
1773231953900658400,6.490658447265625,-2.462397813796997,-0.8772025108337402,-0.44165557622909546
1773231953916650200,6.506650146484375,-2.5051584243774414,-0.7043276429176331,-0.24862214922904968
1773231953932671000,6.5226708984375,-2.5143213272094727,-0.504574716091156,-0.15393804013729095
1773231953948662500,6.53866259765625,-2.481334686279297,-0.33719760179519653,-0.2028072625398636
1773231953964653800,6.55465380859375,-2.442239284515381,-0.22540926933288574,-0.39767327904701233
1773231953980674000,6.570674072265625,-2.4636194705963135,-0.19792033731937408,-0.6359107494354248
1773231953996665600,6.58666552734375,-2.538145065307617,-0.22540926933288574,-0.8161159753799438
1773231954012658700,6.60265869140625,-2.63832688331604,-0.27550023794174194,-0.9046914577484131
1773231954028648400,6.6186484375,-2.726902484893799,-0.3023782968521118,-0.930347740650177
1773231954044670700,6.634670654296875,-2.780658483505249,-0.3066543638706207,-0.9529497623443604
1773231954060662000,6.650662109375,-2.7873780727386475,-0.28466320037841797,-0.9810495972633362
1773231954076653600,6.666653564453125,-2.7519478797912598,-0.23884831368923187,-0.9926560521125793
1773231954092674600,6.682674560546875,-2.6749789714813232,-0.2125810980796814,-0.9773843884468079
1773231954108664300,6.698664306640625,-2.568077564239502,-0.19547687470912933,-0.93095862865448
1773231954124657200,6.7146572265625,-2.3994786739349365,-0.16920967400074005,-0.8539896011352539
1773231954140678700,6.7306787109375,-2.1759018898010254,-0.1258382350206375,-0.7916813492774963
1773231954156668700,6.746668701171875,-1.9089539051055908,-0.07513642311096191,-0.7397578358650208
1773231954172661800,6.762661865234375,-1.6224581003189087,-0.029932396486401558,-0.6713408827781677
1773231954188651300,6.7786513671875,-1.3542882204055786,-0.036041051149368286,-0.5723807215690613
1773231954204674000,6.794674072265625,-1.1007791757583618,-0.07391469180583954,-0.44654250144958496
1773231954220663800,6.810663818359375,-0.8405506014823914,-0.05314527451992035,-0.3396410644054413
1773231954236655000,6.826655029296875,-0.4917465150356293,-0.10323622822761536,-0.2565633952617645
1773231954252649200,6.842649169921875,-0.06291911751031876,-0.19486601650714874,-0.0708603709936142
1773231954268668700,6.858668701171875,0.40072759985923767,-0.24190263450145721,0.2638937830924988
1773231954284659500,6.874659423828125,0.8949176073074341,-0.1160643994808197,0.59803706407547
1773231954300651500,6.890651611328125,1.4379768371582031,0.13377949595451355,0.7623597979545593
1773231954316671500,6.90667138671875,1.977981686592102,0.37629300355911255,0.8020660877227783
1773231954332665300,6.922665283203125,2.445904493331909,0.5668829679489136,0.8338310718536377
1773231954348655400,6.9386552734375,2.802649736404419,0.6951646208763123,0.8717046976089478
1773231954364677000,6.954677001953125,3.0867021083831787,0.7067710757255554,0.8723155856132507
1773231954380668200,6.970668212890625,3.308446168899536,0.5907067060470581,0.8356636762619019
1773231954396660700,6.98666064453125,3.4917056560516357,0.42210787534713745,0.7849618196487427
1773231954412650500,7.002650390625,3.695734739303589,0.2223549485206604,0.6963863968849182
1773231954428671000,7.0186708984375,3.9156463146209717,-0.0012217304902151227,0.5375614166259766
1773231954444663800,7.034663818359375,4.1135663986206055,-0.17470745742321014,0.413555771112442
1773231954460654300,7.050654296875,4.176485538482666,-0.26572638750076294,0.31031954288482666
1773231954476646400,7.066646484375,4.12150764465332,-0.2938261926174164,0.3170390725135803
1773231954492665900,7.082665771484375,4.017049789428711,-0.23335053026676178,0.42210787534713745
1773231954508658400,7.098658447265625,3.871663808822632,-0.1466076523065567,0.5216789245605469
1773231954524648000,7.11464794921875,3.6975672245025635,-0.025045474991202354,0.6145304441452026
1773231954540671500,7.13067138671875,3.4715471267700195,0.08491026610136032,0.6988298296928406
1773231954556661200,7.1466611328125,3.2204816341400146,0.16554448008537292,0.7745771408081055
1773231954572655000,7.162655029296875,2.9529225826263428,0.25106561183929443,0.8130616545677185
1773231954588645000,7.17864501953125,2.6933047771453857,0.2968805134296417,0.7965682744979858
1773231954604667600,7.194667724609375,2.4025330543518066,0.2926044464111328,0.7312057018280029
1773231954620657200,7.2106572265625,2.0641136169433594,0.2577851414680481,0.646295428276062
1773231954636648700,7.226648681640625,1.7024813890457153,0.24007004499435425,0.5833762884140015
1773231954652672500,7.242672607421875,1.33168625831604,0.2119702398777008,0.5418374538421631
1773231954668661800,7.258661865234375,0.9541715383529663,0.1814269721508026,0.49724429845809937
1773231954684654000,7.274654052734375,0.5381723046302795,0.19120082259178162,0.42210787534713745
1773231954700674300,7.29067431640625,0.04092797264456749,0.23029619455337524,0.27550023794174194
1773231954716664600,7.30666455078125,-0.5338962078094482,0.26450464129447937,0.06841690838336945
1773231954732658400,7.322658447265625,-1.091616153717041,0.24434609711170197,-0.1111774742603302
1773231954748648000,7.33864794921875,-1.5961909294128418,0.16065755486488342,-0.23640485107898712
1773231954764668700,7.354668701171875,-1.9853121042251587,0.02076941914856434,-0.2828305959701538
1773231954780660200,7.37066015625,-2.2705860137939453,-0.12095131725072861,-0.2681698501110077
1773231954796652500,7.386652587890625,-2.451402187347412,-0.21991148591041565,-0.19425514340400696
1773231954812674000,7.402674072265625,-2.473393440246582,-0.33108896017074585,-0.11789698898792267
1773231954828665000,7.4186650390625,-2.414750337600708,-0.4105014503002167,-0.07696902006864548
1773231954844656600,7.43465673828125,-2.367713689804077,-0.4642575979232788,-0.06352998316287994
1773231954860646100,7.450646240234375,-2.3738224506378174,-0.5057964324951172,-0.07024950534105301
1773231954876669400,7.46666943359375,-2.4239132404327393,-0.5296201705932617,-0.06414084881544113
1773231954892661500,7.48266162109375,-2.5192081928253174,-0.5204572081565857,-0.05742133408784866
1773231954908652300,7.49865234375,-2.618168354034424,-0.47280970215797424,-0.042760565876960754
1773231954924672300,7.51467236328125,-2.6389379501342773,-0.3988949954509735,-0.024434609338641167
1773231954940664600,7.53066455078125,-2.543031930923462,-0.3286454975605011,-0.02932153269648552
1773231954956654000,7.546654052734375,-2.423302412033081,-0.28038713335990906,-0.09773843735456467
1773231954972647700,7.562647705078125,-2.3609941005706787,-0.2571742534637451,-0.22479841113090515
1773231954988668400,7.57866845703125,-2.378709316253662,-0.26083946228027344,-0.3494149148464203
1773231955004658700,7.59465869140625,-2.4911084175109863,-0.2834414839744568,-0.4447098970413208
1773231955020651000,7.610651123046875,-2.6615397930145264,-0.2926044464111328,-0.5222898125648499
1773231955036671000,7.6266708984375,-2.8374691009521484,-0.28099802136421204,-0.5845980644226074
1773231955052664600,7.64266455078125,-2.951090097427368,-0.22113321721553802,-0.6304129362106323
1773231955068653800,7.65865380859375,-2.975524663925171,-0.1508837193250656,-0.6407976150512695
1773231955084645600,7.674645751953125,-2.911994695663452,-0.08124507963657379,-0.616973876953125
1773231955100667600,7.690667724609375,-2.794708490371704,-0.05314527451992035,-0.5607742667198181
1773231955116657700,7.70665771484375,-2.6670377254486084,-0.06536258012056351,-0.4996877610683441
1773231955132652000,7.722652099609375,-2.5161540508270264,-0.08429940044879913,-0.4758640229701996
1773231955148672800,7.7386728515625,-2.2852468490600586,-0.10445795953273773,-0.49357911944389343
1773231955164661500,7.75466162109375,-1.977981686592102,-0.1270599663257599,-0.4954117238521576
1773231955180652800,7.77065283203125,-1.6560556888580322,-0.13866640627384186,-0.42210787534713745
1773231955196645400,7.786645263671875,-1.3310753107070923,-0.1563815027475357,-0.2828305959701538
1773231955212667100,7.802667236328125,-1.0250319242477417,-0.11301007121801376,-0.11789698898792267
1773231955228658200,7.818658203125,-0.6982190012931824,-0.01466076634824276,0.007941247895359993
1773231955244649500,7.8346494140625,-0.3084869384765625,0.02871066704392433,0.11484266817569733
1773231955260669700,7.850669677734375,0.13561208546161652,0.08674286305904388,0.3237585723400116
1773231955276662800,7.866662841796875,0.6206390857696533,0.21135938167572021,0.5613851547241211
1773231955292654600,7.882654541015625,1.156978726387024,0.3897320330142975,0.6133087277412415
1773231955308642300,7.898642333984375,1.7324138879776,0.4954117238521576,0.4795292317867279
1773231955324666000,7.914666015625,2.291355609893799,0.5418374538421631,0.3182607889175415
1773231955340657200,7.9306572265625,2.7818803787231445,0.5180137157440186,0.16982053220272064
1773231955356647200,7.946647216796875,3.1612277030944824,0.40256020426750183,0.04581489413976669
1773231955372669000,7.9626689453125,3.4214563369750977,0.19608774781227112,-0.025656340643763542
1773231955388661800,7.978661865234375,3.597996234893799,-0.03848451003432274,-0.0403171069920063
1773231955404652800,7.99465283203125,3.72383451461792,-0.19853121042251587,-0.003054326167330146
1773231955420674000,8.010674072265624,3.833179473876953,-0.2840523421764374,0.05314527451992035
1773231955436663800,8.026663818359374,3.905261516571045,-0.3090978264808655,0.12767083942890167
1773231955452658200,8.042658203125,3.9376373291015625,-0.2626720666885376,0.26572638750076294
1773231955468649200,8.058649169921875,3.9437460899353027,-0.14416420459747314,0.4538728892803192
1773231955484670700,8.074670654296876,3.9119811058044434,0.04764748737215996,0.6304129362106323
1773231955500660700,8.09066064453125,3.830125093460083,0.24129177629947662,0.7452555894851685
1773231955516651500,8.106651611328125,3.7201693058013916,0.4043927788734436,0.7947356700897217
1773231955532673800,8.122673828125,3.561955213546753,0.4960225820541382,0.7996225953102112
1773231955548663600,8.13866357421875,3.3591480255126953,0.5167919993400574,0.7812966704368591
1773231955564654000,8.154654052734376,3.115412712097168,0.4856378734111786,0.7556403279304504
1773231955580646400,8.170646484375,2.838690757751465,0.4502076804637909,0.7287622094154358
1773231955596667600,8.186667724609375,2.5521950721740723,0.41111230850219727,0.6725626587867737
1773231955612659700,8.20265966796875,2.2204952239990234,0.37629300355911255,0.5900958180427551
1773231955628651000,8.218651123046875,1.8674150705337524,0.3543018400669098,0.49846604466438293
1773231955644672300,8.23467236328125,1.50211763381958,0.3280346393585205,0.4141666293144226
1773231955660663800,8.250663818359374,1.1142182350158691,0.28466320037841797,0.3335324227809906
1773231955676654000,8.266654052734374,0.7037167549133301,0.26083946228027344,0.26022860407829285
1773231955692644900,8.282644775390626,0.2626720666885376,0.21502456068992615,0.13561208546161652
1773231955708668400,8.29866845703125,-0.23457226157188416,0.11545353382825851,-0.0708603709936142
1773231955724657000,8.314656982421875,-0.7409795522689819,-0.05864306539297104,-0.29993483424186707
1773231955740650500,8.330650390625,-1.2235630750656128,-0.3090978264808655,-0.46181413531303406
1773231955756671000,8.3466708984375,-1.6664403676986694,-0.4966334402561188,-0.5180137157440186
1773231955772663600,8.36266357421875,-2.0396790504455566,-0.6114761233329773,-0.5412266254425049
1773231955788653000,8.378653076171876,-2.3774874210357666,-0.6597344875335693,-0.5577199459075928
1773231955804646100,8.394646240234374,-2.621222734451294,-0.6695083379745483,-0.5577199459075928
1773231955820668000,8.41066796875,-2.690861463546753,-0.6481280326843262,-0.5442809462547302
1773231955836657000,8.426656982421875,-2.6316075325012207,-0.608421802520752,-0.5290092825889587
1773231955852649200,8.442649169921875,-2.534479856491089,-0.6108652353286743,-0.5393940210342407
1773231955868669700,8.458669677734376,-2.4966063499450684,-0.6316346526145935,-0.5809328556060791
1773231955884662300,8.474662353515624,-2.5228734016418457,-0.6352998614311218,-0.6004805564880371
1773231955900652300,8.49065234375,-2.6065618991851807,-0.5839871764183044,-0.5668829679489136
1773231955916644000,8.50664404296875,-2.6762006282806396,-0.4282165467739105,-0.48747047781944275
1773231955932668000,8.52266796875,-2.654820442199707,-0.2687807083129883,-0.40133845806121826
1773231955948657700,8.53865771484375,-2.554027557373047,-0.1618792861700058,-0.35735616087913513
1773231955964648400,8.5546484375,-2.409252643585205,-0.11728613078594208,-0.3677408695220947
1773231955980668700,8.570668701171876,-2.3072381019592285,-0.13316862285137177,-0.4434881806373596
1773231955996661800,8.586661865234374,-2.2907447814941406,-0.14233160018920898,-0.53328537940979
1773231956012654000,8.602654052734374,-2.3377811908721924,-0.18814650177955627,-0.5839871764183044
1773231956028643800,8.618643798828124,-2.3994786739349365,-0.23518311977386475,-0.5943718552589417
1773231956044664300,8.634664306640625,-2.433687210083008,-0.24495697021484375,-0.5601634383201599
1773231956060656000,8.65065625,-2.4245240688323975,-0.21319197118282318,-0.4966334402561188
1773231956076648400,8.6666484375,-2.3848178386688232,-0.1508837193250656,-0.4331034719944
1773231956092671000,8.6826708984375,-2.3487768173217773,-0.07880161702632904,-0.34513887763023376
1773231956108660700,8.69866064453125,-2.3102922439575195,-0.05925392732024193,-0.2571742534637451
1773231956124652800,8.71465283203125,-2.264477491378784,-0.03176499158143997,-0.19486601650714874
1773231956140643600,8.7306435546875,-2.175291061401367,0.015271631069481373,-0.16737708449363708
1773231956156663000,8.7466630859375,-2.0580050945281982,0.08185594528913498,-0.19547687470912933
1773231956172657000,8.762656982421875,-1.9028452634811401,0.1417207419872284,-0.24373523890972137
1773231956188646700,8.778646728515625,-1.703092336654663,0.17837265133857727,-0.27061331272125244
1773231956204667600,8.794667724609376,-1.453248381614685,0.17592918872833252,-0.28099802136421204
1773231956220660200,8.81066015625,-1.1716395616531372,0.18081611394882202,-0.3176499307155609
1773231956236652000,8.826652099609374,-0.8197811841964722,0.17043140530586243,-0.3952298164367676
1773231956252642800,8.842642822265624,-0.37751471996307373,0.05192354694008827,-0.43799036741256714
1773231956268662800,8.858662841796875,0.0959058403968811,-0.09162978827953339,-0.2974913716316223
1773231956284655400,8.8746552734375,0.543059229850769,-0.14477506279945374,-0.01038470957428217
1773231956300646100,8.890646240234375,1.007927656173706,-0.06291911751031876,0.2272418737411499
1773231956316668700,8.906668701171874,1.5234979391098022,0.09712757170200348,0.35613444447517395
1773231956332660000,8.922659912109374,2.0512855052948,0.28649580478668213,0.4343251883983612
1773231956348648700,8.938648681640625,2.524095296859741,0.46364670991897583,0.49296826124191284
1773231956364641500,8.9546416015625,2.875342607498169,0.5968153476715088,0.5253441333770752
1773231956380661800,8.970661865234375,3.121521472930908,0.6243042945861816,0.48808133602142334
1773231956396653000,8.986653076171875,3.305391788482666,0.5076290369033813,0.40622538328170776
1773231956412647000,9.00264697265625,3.4526102542877197,0.3176499307155609,0.30970868468284607
1773231956428667000,9.0186669921875,3.6138787269592285,0.10751228034496307,0.2119702398777008
1773231956444658000,9.034657958984376,3.7696495056152344,-0.10812314599752426,0.12461651116609573
1773231956460649000,9.05064892578125,3.872274875640869,-0.2724458873271942,0.11178833991289139
1773231956476671500,9.06667138671875,3.921754837036133,-0.31459560990333557,0.20097467303276062
1773231956492662300,9.082662353515625,3.9015963077545166,-0.23029619455337524,0.3549126982688904
1773231956508653800,9.09865380859375,3.8374555110931396,-0.06352998316287994,0.5503895878791809
1773231956524643600,9.1146435546875,3.7360517978668213,0.11178833991289139,0.7134906053543091
1773231956540664800,9.130664794921875,3.587611675262451,0.23945917189121246,0.7935139536857605
1773231956556657700,9.14665771484375,3.4129040241241455,0.30115658044815063,0.8014551997184753
1773231956572649700,9.162649658203126,3.1868839263916016,0.29626965522766113,0.7672467231750488
1773231956588669000,9.1786689453125,2.926044464111328,0.2620611786842346,0.7189884185791016
1773231956604661000,9.194660888671875,2.637716054916382,0.21502456068992615,0.6688974499702454
1773231956620652300,9.21065234375,2.339003086090088,0.1569923609495163,0.6157521605491638
1773231956636644900,9.226644775390625,2.015244483947754,0.13316862285137177,0.5436700582504272
1773231956652667000,9.2426669921875,1.6756033897399902,0.13927727937698364,0.4453207552433014
1773231956668657000,9.258656982421876,1.3280210494995117,0.14966198801994324,0.3500257730484009
1773231956684648400,9.2746484375,0.9376781582832336,0.16920967400074005,0.2571742534637451
1773231956700668400,9.29066845703125,0.5070181488990784,0.16920967400074005,0.15271630883216858
1773231956716661200,9.3066611328125,0.02687807008624077,0.16004669666290283,0.024434609338641167
1773231956732652800,9.32265283203125,-0.46670106053352356,0.14294247329235077,-0.12217304855585098
1773231956748644000,9.33864404296875,-0.9053022861480713,0.08002334833145142,-0.24678955972194672
1773231956764663300,9.354663330078125,-1.301142930984497,-0.021991148591041565,-0.313373863697052
1773231956780657000,9.370656982421876,-1.673770785331726,-0.11728613078594208,-0.3488040566444397
1773231956796646100,9.386646240234375,-1.9969184398651123,-0.1722639948129654,-0.37201693654060364
1773231956812668000,9.40266796875,-2.2394320964813232,-0.17531833052635193,-0.3646865487098694
1773231956828661500,9.41866162109375,-2.3774874210357666,-0.19608774781227112,-0.36529740691185
1773231956844652500,9.434652587890625,-2.445904493331909,-0.23090706765651703,-0.3897320330142975
1773231956860642600,9.450642578125,-2.470339059829712,-0.304210901260376,-0.4447098970413208
1773231956876665000,9.4666650390625,-2.4972171783447266,-0.4105014503002167,-0.5216789245605469
1773231956892656600,9.48265673828125,-2.554638385772705,-0.5296201705932617,-0.5962044596672058
1773231956908646000,9.49864599609375,-2.654820442199707,-0.5962044596672058,-0.6188064813613892
1773231956924667000,9.5146669921875,-2.7647759914398193,-0.588263213634491,-0.59803706407547
1773231956940659000,9.530658935546874,-2.8270843029022217,-0.5070181488990784,-0.5387831330299377
1773231956956651300,9.5466513671875,-2.8203649520874023,-0.3927863538265228,-0.47769662737846375
1773231956972640500,9.562640625,-2.750115394592285,-0.2932153046131134,-0.45692721009254456
1773231956988661800,9.578661865234375,-2.7006351947784424,-0.19608774781227112,-0.4893030524253845
1773231957004654300,9.594654296875,-2.699413537979126,-0.12278391420841217,-0.5302310585975647
1773231957028643000,9.61864306640625,-2.819143056869507,-0.11545353382825851,-0.5778785347938538
1773231957044662500,9.63466259765625,-2.8851165771484375,-0.1258382350206375,-0.617584764957428
1773231957060652800,9.65065283203125,-2.8875601291656494,-0.14233160018920898,-0.6646214127540588
1773231957076645000,9.66664501953125,-2.8405234813690186,-0.14233160018920898,-0.7122688889503479
1773231957092665600,9.68266552734375,-2.7452285289764404,-0.15515977144241333,-0.7623597979545593
1773231957108658700,9.69865869140625,-2.6261096000671387,-0.2015855312347412,-0.8057312369346619
1773231957124650200,9.714650146484376,-2.4917192459106445,-0.26511552929878235,-0.8112290501594543
1773231957140641300,9.730641357421876,-2.3463335037231445,-0.3090978264808655,-0.797789990901947
1773231957156661500,9.74666162109375,-2.1728477478027344,-0.3121521472930908,-0.770301103591919
1773231957172654300,9.762654296875,-1.9755382537841797,-0.2871066629886627,-0.7342600226402283
1773231957188645000,9.77864501953125,-1.7696765661239624,-0.2119702398777008,-0.6395758986473083
1773231957204666400,9.794666259765625,-1.5644259452819824,-0.12767083942890167,-0.504574716091156
1773231957220659000,9.810658935546876,-1.3836097717285156,-0.02076941914856434,-0.34147366881370544
1773231957236648400,9.8266484375,-1.188132882118225,0.14233160018920898,-0.21624629199504852
1773231957252671000,9.8426708984375,-0.912021815776825,0.28099802136421204,-0.11850785464048386
1773231957268662500,9.85866259765625,-0.5900958180427551,0.40683624148368835,0.07452555745840073
1773231957284652300,9.87465234375,-0.16554448008537292,0.5540547966957092,0.39645153284072876
1773231957300645400,9.890645263671875,0.4331034719944,0.7519751191139221,0.6524040699005127
1773231957316667000,9.9066669921875,1.2040153741836548,0.8625417351722717,0.7061602473258972
1773231957332657200,9.9226572265625,1.9657644033432007,0.8588765263557434,0.6530149579048157
1773231957348648000,9.93864794921875,2.5864033699035645,0.7617489695549011,0.6114761233329773
1773231957364639500,9.954639404296875,3.0182852745056152,0.5852088928222656,0.6475171446800232
1773231957380660700,9.97066064453125,3.306002616882324,0.3787364661693573,0.6914994716644287
1773231957396651500,9.986651611328124,3.533855438232422,0.16371189057826996,0.6914994716644287
1773231957412642800,10.002642822265624,3.7617082595825195,-0.019547687843441963,0.6444628238677979
1773231957428663300,10.018663330078125,4.050036430358887,-0.16920967400074005,0.5338962078094482
1773231957444654600,10.034654541015625,4.353636741638184,-0.3176499307155609,0.3836233615875244
1773231957460646000,10.05064599609375,4.592484951019287,-0.3738495409488678,0.28588494658470154
1773231957476639500,10.066639404296875,4.579656600952148,-0.3787364661693573,0.27000242471694946
1773231957492661500,10.08266162109375,4.491081237792969,-0.294437050819397,0.41233405470848083
1773231957508650000,10.09864990234375,4.338365077972412,-0.10873401165008545,0.59803706407547
1773231957524641300,10.114641357421876,4.136779308319092,0.08857546001672745,0.7745771408081055
1773231957540662000,10.130662109375,3.9070940017700195,0.2577851414680481,0.8930850028991699
1773231957556655600,10.146655517578125,3.660304546356201,0.3597996234893799,0.9059131741523743
1773231957572647700,10.162647705078125,3.4214563369750977,0.38606682419776917,0.8533787727355957
1773231957588666600,10.17866650390625,3.148399591445923,0.36529740691185,0.769079327583313
1773231957604658000,10.194657958984376,2.85274076461792,0.33475416898727417,0.6890559792518616
1773231957620650000,10.21064990234375,2.5302038192749023,0.30054569244384766,0.6255260109901428
1773231957636641300,10.226641357421874,2.163684606552124,0.2828305959701538,0.5662720799446106
1773231957652664300,10.242664306640625,1.7776178121566772,0.2736676335334778,0.503963828086853
1773231957668654600,10.258654541015625,1.3750576972961426,0.24007004499435425,0.4251621961593628
1773231957684646000,10.27464599609375,0.9150761365890503,0.1973094791173935,0.32986724376678467
1773231957700666400,10.290666259765626,0.4129449129104614,0.13377949595451355,0.20952677726745605
1773231957716660000,10.306659912109374,-0.09834930300712585,0.01771509274840355,0.01710422709584236
1773231957732649200,10.322649169921876,-0.5656611919403076,-0.09896016865968704,-0.22540926933288574
1773231957748641300,10.338641357421874,-0.998153805732727,-0.22907446324825287,-0.4294382631778717
1773231957764663000,10.3546630859375,-1.3964380025863647,-0.34086281061172485,-0.5369505286216736
1773231957780653800,10.37065380859375,-1.7989981174468994,-0.403781920671463,-0.5864306092262268
1773231957796643800,10.386643798828125,-2.1624629497528076,-0.43615779280662537,-0.6236934065818787
1773231957812668400,10.40266845703125,-2.478891134262085,-0.4141666293144226,-0.6640105247497559
1773231957828656600,10.41865673828125,-2.6737570762634277,-0.39767327904701233,-0.7055493593215942
1773231957844649000,10.43464892578125,-2.7617218494415283,-0.40072759985923767,-0.6994407176971436
1773231957860641000,10.45064111328125,-2.7482826709747314,-0.4294382631778717,-0.6420193910598755
1773231957876661500,10.46666162109375,-2.6945266723632812,-0.4502076804637909,-0.5491678714752197
1773231957892653800,10.48265380859375,-2.671313762664795,-0.42577308416366577,-0.45631635189056396
1773231957908644000,10.49864404296875,-2.711019992828369,-0.3634648323059082,-0.38117989897727966
1773231957924665000,10.5146650390625,-2.7904324531555176,-0.24923302233219147,-0.32009339332580566
1773231957940657200,10.5306572265625,-2.8759536743164062,-0.1362229436635971,-0.27122417092323303
1773231957956647200,10.546647216796876,-2.8912250995635986,-0.06475171446800232,-0.251676470041275
1773231957972641000,10.56264111328125,-2.83074951171875,-0.015271631069481373,-0.27611109614372253
1773231957988659700,10.57865966796875,-2.7403414249420166,-0.025656340643763542,-0.3695734739303589
1773231958004650800,10.594650634765625,-2.6816983222961426,-0.10262536257505417,-0.5510004758834839
1773231958020643000,10.61064306640625,-2.7116308212280273,-0.17287486791610718,-0.720820963382721
1773231958036666400,10.626666259765624,-2.772106409072876,-0.23396138846874237,-0.8045095205307007
1773231958052655900,10.64265576171875,-2.7983736991882324,-0.27000242471694946,-0.816726803779602
1773231958068646000,10.65864599609375,-2.75500226020813,-0.25106561183929443,-0.7861835956573486
1773231958084637700,10.6746376953125,-2.654820442199707,-0.17592918872833252,-0.7580837607383728
1773231958100659000,10.690658935546875,-2.5326473712921143,-0.12095131725072861,-0.7611380815505981
1773231958116651500,10.706651611328125,-2.381152629852295,-0.11545353382825851,-0.7617489695549011
1773231958132644400,10.722644287109375,-2.2149972915649414,-0.13377949595451355,-0.7654141783714294
1773231958148664300,10.738664306640626,-2.043344259262085,-0.17531833052635193,-0.7861835956573486
1773231958164655900,10.75465576171875,-1.872912883758545,-0.2168571650981903,-0.7996225953102112
1773231958180645400,10.770645263671875,-1.6688838005065918,-0.22479841113090515,-0.7745771408081055
1773231958196636400,10.786636474609375,-1.445918083190918,-0.21013765037059784,-0.6933320760726929
1773231958212661500,10.80266162109375,-1.2009611129760742,-0.2028072625398636,-0.578489363193512
1773231958228652000,10.818652099609375,-0.9633345007896423,-0.1563815027475357,-0.4764748811721802
1773231958244642800,10.834642822265625,-0.7055493593215942,-0.06230825558304787,-0.39095374941825867
1773231958260663800,10.850663818359376,-0.40133845806121826,-0.012828170321881771,-0.2834414839744568
1773231958276655600,10.866655517578126,-0.07452555745840073,0.06291911751031876,-0.060475658625364304
1773231958292646100,10.882646240234376,0.33169981837272644,0.2076941877603531,0.23090706765651703
1773231958308668000,10.89866796875,0.8772025108337402,0.40622538328170776,0.403781920671463
1773231958324658700,10.91465869140625,1.5302174091339111,0.5448917746543884,0.4190535545349121
1773231958340648200,10.930648193359374,2.1533000469207764,0.5827654600143433,0.37629300355911255
1773231958356639500,10.946639404296874,2.668259382247925,0.5155702829360962,0.3384193480014801
1773231958372663800,10.962663818359376,3.017674207687378,0.3701843321323395,0.37140607833862305
1773231958388654300,10.978654296875,3.2614095211029053,0.18325957655906677,0.45204028487205505
1773231958404645600,10.994645751953126,3.4269540309906006,0.01038470957428217,0.5467243790626526
1773231958420666000,11.010666015625,3.596163749694824,-0.08368854224681854,0.626747727394104
1773231958436659200,11.0266591796875,3.743382215499878,-0.12828169763088226,0.6713408827781677
1773231958452649500,11.0426494140625,3.8625009059906006,-0.11545353382825851,0.7452555894851685
1773231958468639200,11.05863916015625,3.947411298751831,-0.02015855349600315,0.8698720932006836
1773231958484661800,11.074661865234376,3.9632937908172607,0.14905111491680145,1.0280861854553223
1773231958500653300,11.0906533203125,3.9119811058044434,0.3481931984424591,1.1533136367797852
1773231958516644600,11.10664453125,3.798970937728882,0.5222898125648499,1.2308934926986694
1773231958532668200,11.122668212890625,3.6438112258911133,0.617584764957428,1.2571606636047363
1773231958548657700,11.13865771484375,3.4800992012023926,0.6481280326843262,1.2296717166900635
1773231958564648200,11.154648193359375,3.3127222061157227,0.6163630485534668,1.131933331489563
1773231958580638700,11.170638671875,3.1361820697784424,0.5393940210342407,0.9914342761039734
1773231958596661000,11.186660888671875,2.9248228073120117,0.4306600093841553,0.8381071090698242
1773231958612653300,11.2026533203125,2.6707029342651367,0.3127630054950714,0.6872233748435974
1773231958628643000,11.21864306640625,2.370157241821289,0.20036379992961884,0.5485569834709167
1773231958644665000,11.2346650390625,2.018298864364624,0.13072516024112701,0.423329621553421
1773231958660656000,11.25065625,1.6499470472335815,0.1270599663257599,0.3017674386501312
1773231958676646100,11.266646240234374,1.2718214988708496,0.16065755486488342,0.15454891324043274
1773231958692640300,11.28264013671875,0.8833111524581909,0.19486601650714874,-0.010995574295520782
1773231958708660700,11.29866064453125,0.4862487316131592,0.2021963894367218,-0.16859880089759827
1773231958724651300,11.3146513671875,0.04886921867728233,0.14355333149433136,-0.28527405858039856
1773231958740642800,11.330642822265625,-0.40256020426750183,0.036041051149368286,-0.32131510972976685
1773231958756664800,11.346664794921875,-0.7855727076530457,-0.09162978827953339,-0.2681698501110077
1773231958772655000,11.362655029296874,-1.1184942722320557,-0.18448130786418915,-0.18997909128665924
1773231958788647400,11.3786474609375,-1.4208725690841675,-0.21930062770843506,-0.13805554807186127
1773231958804637000,11.394636962890624,-1.6896532773971558,-0.23396138846874237,-0.1319468915462494
1773231958820660200,11.41066015625,-1.9138407707214355,-0.22357667982578278,-0.1160643994808197
1773231958836649700,11.426649658203125,-2.0537290573120117,-0.23029619455337524,-0.08124507963657379
1773231958852642000,11.44264208984375,-2.1197023391723633,-0.2223549485206604,-0.02382374368607998
1773231958868662800,11.458662841796874,-2.1392500400543213,-0.22846360504627228,0.01466076634824276
1773231958884655000,11.474655029296875,-2.1649065017700195,-0.29504790902137756,0.0012217304902151227
1773231958900646000,11.49064599609375,-2.2485949993133545,-0.4086688458919525,-0.07391469180583954
1773231958916638500,11.506638427734375,-2.4049763679504395,-0.5125159621238708,-0.16982053220272064
1773231958932660500,11.522660400390626,-2.5607471466064453,-0.5601634383201599,-0.2064724564552307
1773231958948651300,11.5386513671875,-2.6395487785339355,-0.5577199459075928,-0.18997909128665924
1773231958964641000,11.55464111328125,-2.623666286468506,-0.5051855444908142,-0.14538592100143433
1773231958980663600,11.57066357421875,-2.5521950721740723,-0.45631635189056396,-0.13805554807186127
1773231958996654000,11.586654052734374,-2.4666738510131836,-0.4178318381309509,-0.19975294172763824
1773231959012644900,11.602644775390624,-2.4550673961639404,-0.3982841372489929,-0.28038713335990906
1773231959028635400,11.618635498046874,-2.5167648792266846,-0.38728857040405273,-0.3579670190811157
1773231959044731000,11.63473095703125,-2.629163980484009,-0.34636059403419495,-0.42760565876960754
1773231959060723000,11.650722900390624,-2.7262916564941406,-0.30604347586631775,-0.5021312236785889
1773231959076715000,11.666715087890625,-2.7818803787231445,-0.26450464129447937,-0.5473352670669556
1773231959092737000,11.682737060546875,-2.7598891258239746,-0.19303341209888458,-0.5424483418464661
1773231959108727800,11.698727783203125,-2.6945266723632812,-0.14416420459747314,-0.5082398653030396
1773231959124718800,11.71471875,-2.615725040435791,-0.10873401165008545,-0.46547931432724
1773231959140711400,11.73071142578125,-2.510045289993286,-0.08246681094169617,-0.4502076804637909
1773231959156732400,11.746732421875,-2.3799309730529785,-0.04581489413976669,-0.46303585171699524
1773231959172723500,11.762723388671875,-2.233323335647583,0.021991148591041565,-0.4746423065662384
1773231959188714500,11.778714599609375,-2.0610592365264893,0.07269296050071716,-0.45326200127601624
1773231959204736000,11.794736083984375,-1.8252654075622559,0.11850785464048386,-0.40072759985923767
1773231959220727600,11.8107275390625,-1.5351043939590454,0.15515977144241333,-0.36163222789764404
1773231959236719000,11.826718994140625,-1.1997393369674683,0.2028072625398636,-0.384845107793808
1773231959252741600,11.84274169921875,-0.8093964457511902,0.18081611394882202,-0.4404338300228119
1773231959268731400,11.8587314453125,-0.40256020426750183,0.06841690838336945,-0.4050036668777466
1773231959284723200,11.87472314453125,0.00427605677396059,-0.045204028487205505,-0.16493362188339233
1773231959300713000,11.890712890625,0.43249258399009705,-0.01038470957428217,0.16004669666290283
1773231959316736500,11.906736572265626,0.9492846131324768,0.18081611394882202,0.38240164518356323
1773231959332727800,11.922727783203126,1.5387696027755737,0.4050036668777466,0.46792277693748474
1773231959348718300,11.93871826171875,2.098932981491089,0.6243042945861816,0.5119050741195679
1773231959364708400,11.954708251953125,2.554638385772705,0.7562511563301086,0.5705481171607971
1773231959380729300,11.970729248046876,2.8350255489349365,0.799011766910553,0.617584764957428
1773231959396721400,11.986721435546874,3.0140092372894287,0.7153232097625732,0.6133087277412415
1773231959412714000,12.0027138671875,3.1502320766448975,0.5619960427284241,0.588874101638794
1773231959428736300,12.018736328125,3.299283266067505,0.394008070230484,0.5455026626586914
1773231959444725000,12.03472509765625,3.500868797302246,0.23945917189121246,0.4386012554168701
1773231959460716500,12.050716552734375,3.6945130825042725,0.09407325088977814,0.3078760802745819
1773231959476740600,12.06674072265625,3.8337903022766113,0.00366519158706069,0.21930062770843506
1773231959492732000,12.08273193359375,3.908315896987915,-0.004886921960860491,0.20952677726745605
1773231959508723500,12.098723388671875,3.941302537918091,0.04703662544488907,0.2919935882091522
1773231959524713200,12.114713134765625,3.9260308742523193,0.15943582355976105,0.40072759985923767
1773231959540734200,12.130734130859375,3.8985419273376465,0.2932153046131134,0.4703662395477295
1773231959556726500,12.1467265625,3.8344011306762695,0.3695734739303589,0.49296826124191284
1773231959572715300,12.16271533203125,3.687793493270874,0.384845107793808,0.4795292317867279
1773231959588707000,12.17870703125,3.45871901512146,0.3738495409488678,0.48380526900291443
1773231959604728300,12.194728271484376,3.17161226272583,0.3878994286060333,0.5125159621238708
1773231959620722200,12.21072216796875,2.828306198120117,0.3952298164367676,0.5296201705932617
1773231959636711200,12.226711181640624,2.47094988822937,0.4288274049758911,0.5338962078094482
1773231959652735000,12.24273486328125,2.1337523460388184,0.4495968222618103,0.4911356568336487
1773231959668726000,12.25872607421875,1.7892242670059204,0.4306600093841553,0.40072759985923767
1773231959684715000,12.274715087890625,1.4202617406845093,0.41111230850219727,0.31093040108680725
1773231959700738800,12.29073876953125,0.9761626720428467,0.375071257352829,0.25473082065582275
1773231959716729000,12.30672900390625,0.4642575979232788,0.32559117674827576,0.21013765037059784
1773231959732722400,12.322722412109375,-0.0708603709936142,0.2272418737411499,0.18875735998153687
1773231959748711200,12.338711181640624,-0.6157521605491638,0.1007927656173706,0.2015855312347412
1773231959764733400,12.3547333984375,-1.1001683473587036,-0.02321287989616394,0.23579397797584534
1773231959780725200,12.370725341796875,-1.5552629232406616,-0.1270599663257599,0.24129177629947662
1773231959796716000,12.386716064453125,-1.95965576171875,-0.20402899384498596,0.23518311977386475
1773231959812737500,12.402737548828124,-2.2730295658111572,-0.20463985204696655,0.23884831368923187
1773231959828729300,12.418729248046875,-2.4196372032165527,-0.17776179313659668,0.23884831368923187
1773231959844719600,12.4347197265625,-2.4324653148651123,-0.20586158335208893,0.1820378452539444
1773231959860712000,12.4507119140625,-2.397646188735962,-0.27000242471694946,0.0555887371301651
1773231959876733400,12.4667333984375,-2.384207010269165,-0.3445279896259308,-0.13255776464939117
1773231959892724000,12.482723876953125,-2.4300220012664795,-0.4495968222618103,-0.35185837745666504
1773231959908714500,12.498714599609375,-2.56868839263916,-0.578489363193512,-0.5253441333770752
1773231959924735000,12.51473486328125,-2.744006633758545,-0.6878342628479004,-0.5968153476715088
1773231959940728800,12.530728759765625,-2.808758497238159,-0.7556403279304504,-0.5962044596672058
1773231959956720400,12.546720458984375,-2.744006633758545,-0.8069530129432678,-0.5687155723571777
1773231959972711700,12.562711669921875,-2.576629638671875,-0.7996225953102112,-0.5510004758834839
1773231959988733000,12.57873291015625,-2.39825701713562,-0.7312057018280029,-0.5931501388549805
1773231960004722400,12.594722412109375,-2.3212878704071045,-0.6579018831253052,-0.7153232097625732
1773231960020715500,12.610715576171875,-2.3579399585723877,-0.6096435189247131,-0.8765916228294373
1773231960036735500,12.626735595703124,-2.426356792449951,-0.6035348773002625,-1.0506882667541504
1773231960052729300,12.642729248046875,-2.4544565677642822,-0.656069278717041,-1.2870930433273315
1773231960068719000,12.658718994140624,-2.4721715450286865,-0.7641924023628235,-1.5442672967910767
1773231960084708900,12.674708984375,-2.479501962661743,-0.8900306820869446,-1.7336355447769165
1773231960100731000,12.69073095703125,-2.4831671714782715,-1.0140362977981567,-1.8069393634796143
1773231960116724000,12.706723876953125,-2.4831671714782715,-1.1099421977996826,-1.7910568714141846
1773231960132715500,12.722715576171876,-2.445904493331909,-1.176526427268982,-1.7079792022705078
1773231960148737800,12.73873779296875,-2.349998712539673,-1.1624765396118164,-1.5644259452819824
1773231960164727000,12.75472705078125,-2.219273328781128,-1.0396926403045654,-1.3854423761367798
1773231960180717800,12.7707177734375,-2.10809588432312,-0.8332201838493347,-1.1832460165023804
1773231960196709000,12.786709228515624,-2.010357618331909,-0.5400048494338989,-0.9242390990257263
1773231960212733200,12.802733154296876,-1.880243182182312,-0.24007004499435425,-0.6279694437980652
1773231960228724200,12.81872412109375,-1.7366899251937866,0.01038470957428217,-0.32559117674827576
1773231960244713500,12.83471337890625,-1.5851953029632568,0.28527405858039856,-0.03298672288656235
1773231960260735000,12.85073486328125,-1.3866641521453857,0.5571091175079346,0.16982053220272064
1773231960276728000,12.86672802734375,-1.1368201971054077,0.7348709106445312,0.35735616087913513
1773231960292719400,12.88271923828125,-0.827111542224884,0.8717046976089478,0.6517932415008545
1773231960308738800,12.89873876953125,-0.36102136969566345,1.0109820365905762,0.8332201838493347
1773231960324731400,12.9147314453125,0.39767327904701233,1.0653489828109741,0.7153232097625732
1773231960340154400,12.930154296875,1.3420709371566772,0.9553932547569275,0.42088615894317627
1773231960356712400,12.94671240234375,2.157576084136963,0.7275404930114746,0.192422553896904
1773231960372735200,12.9627353515625,2.685974597930908,0.4899139404296875,0.17470745742321014
1773231960388725000,12.97872509765625,2.9498682022094727,0.2730567753314972,0.29138273000717163
1773231960404716000,12.994716064453126,3.050661087036133,0.13316862285137177,0.46242499351501465
1773231960420738600,13.010738525390625,3.1282408237457275,0.0861319974064827,0.6701191663742065
1773231960436731400,13.0267314453125,3.266907215118408,0.11484266817569733,0.827111542224884
1773231960452723500,13.042723388671876,3.516751289367676,0.18387043476104736,0.8985827565193176
1773231960468713200,13.058713134765625,3.74582576751709,0.24373523890972137,0.8820894360542297
1773231960484735200,13.0747353515625,3.910759210586548,0.2926044464111328,0.8704829812049866
1773231960500725800,13.090725830078124,3.964515447616577,0.41172316670417786,0.8912523984909058
1773231960516717800,13.1067177734375,3.8796050548553467,0.5265658497810364,0.959669291973114
1773231960532739000,13.122739013671875,3.762929916381836,0.646906316280365,1.0415252447128296
1773231960548730600,13.138730712890625,3.634648323059082,0.7470881938934326,1.0677924156188965
1773231960564719400,13.15471923828125,3.4917056560516357,0.79840087890625,1.0519099235534668
1773231960580712400,13.17071240234375,3.319441795349121,0.7837401032447815,1.0128145217895508
1773231960596733400,13.1867333984375,3.112358331680298,0.7489207983016968,0.9560040831565857
1773231960612727000,13.20272705078125,2.869234085083008,0.7031059265136719,0.9059131741523743
1773231960628717800,13.2187177734375,2.602285861968994,0.6401867866516113,0.8533787727355957
1773231960644737300,13.2347373046875,2.3035728931427,0.5791002511978149,0.7764097452163696
1773231960660728300,13.250728271484375,1.9993619918823242,0.5247332453727722,0.6914994716644287
1773231960676719600,13.2667197265625,1.7079792022705078,0.46792277693748474,0.6090326309204102
1773231960692711000,13.2827109375,1.406822681427002,0.4288274049758911,0.5400048494338989
1773231960708734500,13.298734375,1.0885618925094604,0.40622538328170776,0.4697553813457489
1773231960724725000,13.31472509765625,0.7874053120613098,0.35735616087913513,0.3286454975605011
1773231960740715300,13.33071533203125,0.4508185386657715,0.25961771607398987,0.11728613078594208
1773231960756737300,13.3467373046875,0.07635815441608429,0.09773843735456467,-0.08674286305904388
1773231960772729600,13.3627294921875,-0.28527405858039856,-0.13927727937698364,-0.25045475363731384
1773231960788719000,13.378718994140625,-0.6004805564880371,-0.36651915311813354,-0.3536909818649292
1773231960804711400,13.39471142578125,-0.8924741148948669,-0.5100724697113037,-0.4129449129104614
1773231960820732000,13.41073193359375,-1.225395679473877,-0.5974262356758118,-0.4349360466003418
1773231960836724700,13.426724853515625,-1.5308283567428589,-0.6328563690185547,-0.42577308416366577
1773231960852717800,13.4427177734375,-1.6811012029647827,-0.6609562039375305,-0.4398229718208313
1773231960868737300,13.4587373046875,-1.7287486791610718,-0.6951646208763123,-0.4440990388393402
1773231960884727800,13.474727783203125,-1.720807433128357,-0.6927211880683899,-0.3836233615875244
1773231960900719000,13.490718994140625,-1.718363881111145,-0.6597344875335693,-0.3176499307155609
1773231960916712400,13.50671240234375,-1.7837265729904175,-0.5949827432632446,-0.27611109614372253
1773231960932733400,13.5227333984375,-1.9541579484939575,-0.5302310585975647,-0.2638937830924988
1773231960948724500,13.538724365234375,-2.1893410682678223,-0.4697553813457489,-0.26633724570274353
1773231960964715000,13.554715087890624,-2.39825701713562,-0.40744712948799133,-0.25045475363731384
1773231960980737000,13.570737060546875,-2.4996604919433594,-0.36590829491615295,-0.24923302233219147
1773231960996727300,13.586727294921875,-2.498438835144043,-0.3585779070854187,-0.31520646810531616
1773231961012721000,13.602720947265626,-2.440406560897827,-0.3604104816913605,-0.44715335965156555
1773231961028709400,13.61870947265625,-2.445904493331909,-0.38240164518356323,-0.607200026512146
1773231961044731400,13.6347314453125,-2.5778512954711914,-0.43615779280662537,-0.7440338730812073
1773231961060723200,13.65072314453125,-2.7672195434570312,-0.4856378734111786,-0.8185594081878662
1773231961076713500,13.66671337890625,-2.85274076461792,-0.5393940210342407,-0.8515461683273315
1773231961092737300,13.6827373046875,-2.8325822353363037,-0.5772676467895508,-0.8625417351722717
1773231961108727300,13.698727294921875,-2.774549961090088,-0.5962044596672058,-0.8900306820869446
1773231961124718000,13.714718017578125,-2.7397305965423584,-0.6163630485534668,-0.9443976879119873
1773231961140710400,13.73071044921875,-2.6957483291625977,-0.6047565937042236,-0.9804387092590332
1773231961156731000,13.74673095703125,-2.6090054512023926,-0.5797111392021179,-0.9859365224838257
1773231961172722000,13.762721923828124,-2.431854486465454,-0.5351179838180542,-0.9572258591651917
1773231961188713200,13.778713134765624,-2.2345449924468994,-0.47219884395599365,-0.921795666217804
1773231961204735700,13.79473583984375,-2.0415115356445312,-0.3952298164367676,-0.8594874143600464
1773231961220726800,13.810726806640625,-1.8515325784683228,-0.31459560990333557,-0.759305477142334
1773231961236718800,13.82671875,-1.615127682685852,-0.2321287989616394,-0.6743952035903931
1773231961252710000,13.8427099609375,-1.3463469743728638,-0.12950342893600464,-0.6316346526145935
1773231961268731400,13.8587314453125,-1.0488556623458862,-0.0708603709936142,-0.6010913848876953
1773231961284722400,13.874722412109374,-0.7153232097625732,-0.10384709388017654,-0.4612032473087311
1773231961300712200,13.890712158203126,-0.35063666105270386,-0.11301007121801376,-0.15515977144241333
1773231961316736500,13.906736572265626,0.06169738993048668,-0.012217304669320583,0.1716531366109848
1773231961332726500,13.9227265625,0.6010913848876953,0.17959438264369965,0.40622538328170776
1773231961348718600,13.938718505859375,1.2748757600784302,0.3543018400669098,0.5876523852348328
1773231961364710100,13.954710205078126,1.9199494123458862,0.4386012554168701,0.7391469478607178
1773231961380729600,13.9707294921875,2.389704942703247,0.44776421785354614,0.8637634515762329
1773231961396722200,13.98672216796875,2.6358835697174072,0.4178318381309509,0.9773843884468079
1773231961412713500,14.00271337890625,2.780047655105591,0.41722095012664795,1.091616153717041
1773231961428735500,14.018735595703125,2.9407052993774414,0.4495968222618103,1.1942415237426758
1773231961444727000,14.03472705078125,3.152064561843872,0.485027015209198,1.2424999475479126
1773231961460716300,14.05071630859375,3.366478443145752,0.5149593949317932,1.225395679473877
1773231961476738000,14.066738037109374,3.545461893081665,0.5418374538421631,1.166752576828003
1773231961492729900,14.082729736328124,3.7030651569366455,0.5736024379730225,1.0812314748764038
1773231961508721000,14.098720947265624,3.788586139678955,0.6157521605491638,1.006095051765442
1773231961524713000,14.114712890625,3.7959165573120117,0.665232241153717,0.9896016716957092
1773231961540735000,14.13073486328125,3.7415497303009033,0.7024950385093689,1.0109820365905762
1773231961556724500,14.146724365234375,3.6468656063079834,0.7079927921295166,1.0109820365905762
1773231961572718600,14.162718505859376,3.528968572616577,0.6927211880683899,0.9896016716957092
1773231961588707000,14.17870703125,3.3731977939605713,0.6835582256317139,0.9511171579360962
1773231961604731100,14.194731201171875,3.1899383068084717,0.6438519954681396,0.8955284357070923
1773231961620722200,14.21072216796875,2.965139865875244,0.5644394755363464,0.8552113175392151
1773231961636711400,14.22671142578125,2.7311785221099854,0.5112941861152649,0.7959573864936829
1773231961652733700,14.242733642578125,2.484389066696167,0.4141666293144226,0.6517932415008545
1773231961668726500,14.2587265625,2.1783454418182373,0.32009339332580566,0.4343251883983612
1773231961684716500,14.274716552734375,1.813048005104065,0.23457226157188416,0.17043140530586243
1773231961700737000,14.290737060546874,1.4178181886672974,0.15027284622192383,-0.0959058403968811
1773231961716729300,14.306729248046874,0.9926560521125793,0.0708603709936142,-0.3500257730484009
1773231961732722400,14.322722412109375,0.5338962078094482,0.009162978269159794,-0.6255260109901428
1773231961748711200,14.338711181640624,0.02687807008624077,-0.05375614017248154,-0.9260717034339905
1773231961764733400,14.3547333984375,-0.5186246037483215,-0.12828169763088226,-1.179580807685852
1773231961780723700,14.3707236328125,-1.0653489828109741,-0.20097467303276062,-1.330464482307434
1773231961796716000,14.386716064453125,-1.5790866613388062,-0.23335053026676178,-1.350012183189392
1773231961812739000,14.402739013671875,-2.026850938796997,-0.22357667982578278,-1.238223910331726
1773231961828728600,14.418728515625,-2.3603832721710205,-0.14355333149433136,-1.0421360731124878
1773231961844720400,14.434720458984375,-2.5357015132904053,-0.1007927656173706,-0.817337691783905
1773231961860710000,14.4507099609375,-2.560136318206787,-0.11056660860776901,-0.5711590051651001
1773231961876732200,14.466732177734375,-2.461786985397339,-0.20036379992961884,-0.3182607889175415
1773231961892725000,14.48272509765625,-2.3848178386688232,-0.33658674359321594,-0.09896016865968704
1773231961908714800,14.49871484375,-2.4196372032165527,-0.4245513379573822,0.08307767659425735
1773231961924737300,14.5147373046875,-2.5418102741241455,-0.46364670991897583,0.2742784917354584
1773231961940730000,14.530730224609375,-2.693915843963623,-0.43799036741256714,0.44776421785354614
1773231961956717800,14.5467177734375,-2.7928760051727295,-0.35552358627319336,0.5357288122177124
1773231961972711200,14.562711181640625,-2.816699743270874,-0.24617868661880493,0.4960225820541382
1773231961988733000,14.57873291015625,-2.7983736991882324,-0.14233160018920898,0.3286454975605011
1773231962004723700,14.5947236328125,-2.792264938354492,-0.08246681094169617,0.10445795953273773
1773231962020714800,14.61071484375,-2.830138683319092,-0.11056660860776901,-0.11239920556545258
1773231962036736500,14.626736572265624,-2.9217684268951416,-0.18020524084568024,-0.26633724570274353
1773231962052729300,14.642729248046875,-3.0085113048553467,-0.27122417092323303,-0.3384193480014801
1773231962068717600,14.658717529296876,-3.048217535018921,-0.3695734739303589,-0.39095374941825867
1773231962084711000,14.6747109375,-3.0213394165039062,-0.4300491213798523,-0.4453207552433014
1773231962100731400,14.6907314453125,-2.953533411026001,-0.42210787534713745,-0.45326200127601624
1773231962116723200,14.70672314453125,-2.8576276302337646,-0.41111230850219727,-0.4306600093841553
1773231962132715300,14.72271533203125,-2.7507262229919434,-0.4190535545349121,-0.375071257352829
1773231962148735000,14.73873486328125,-2.613281488418579,-0.3933972120285034,-0.2932153046131134
1773231962164727800,14.754727783203125,-2.4220807552337646,-0.31031954288482666,-0.24556782841682434
1773231962180717000,14.770717041015626,-2.149634838104248,-0.24923302233219147,-0.2382374405860901
1773231962196708400,14.786708251953126,-1.807550311088562,-0.2119702398777008,-0.2174680233001709
1773231962212731600,14.802731689453125,-1.4074335098266602,-0.19364428520202637,-0.1466076523065567
1773231962228723500,14.818723388671875,-0.9975429177284241,-0.1875356286764145,-0.06169738993048668
1773231962244714800,14.83471484375,-0.6133087277412415,-0.21624629199504852,-0.005497787147760391
1773231962260735000,14.85073486328125,-0.20891591906547546,-0.25045475363731384,0.05314527451992035
1773231962276726500,14.8667265625,0.22846360504627228,-0.33475416898727417,0.21991148591041565
1773231962292720000,14.88272021484375,0.6322455406188965,-0.2767219543457031,0.5357288122177124
1773231962308740400,14.898740234375,1.0378600358963013,0.018936822190880775,0.7764097452163696
1773231962324731400,14.9147314453125,1.4978415966033936,0.43615779280662537,0.8100073337554932
1773231962340721400,14.930721435546875,1.9535470008850098,0.8038986921310425,0.7250970602035522
1773231962356712400,14.94671240234375,2.3597724437713623,1.0653489828109741,0.6316346526145935
1773231962372736300,14.962736328125,2.6920831203460693,1.1722503900527954,0.5064072608947754
1773231962388726800,14.978726806640625,2.937040090560913,1.102611780166626,0.3677408695220947
1773231962404717000,14.994717041015624,3.1202995777130127,0.8961393237113953,0.2724458873271942
1773231962420738000,15.010738037109375,3.294396162033081,0.6524040699005127,0.20402899384498596
1773231962436731400,15.0267314453125,3.489262342453003,0.4245513379573822,0.12950342893600464
1773231962452722000,15.042721923828125,3.726278066635132,0.2278527319431305,0.04214970022439957
1773231962468712700,15.058712646484375,3.9345829486846924,0.10384709388017654,-0.009162978269159794
1773231962484734000,15.07473388671875,4.029267311096191,0.0659734457731247,-0.015882495790719986
1773231962500725200,15.090725341796874,4.064697265625,0.1411098688840866,0.045204028487205505
1773231962516716500,15.106716552734374,4.095851421356201,0.2779437005519867,0.1716531366109848
1773231962532739600,15.122739501953125,4.087299346923828,0.455705463886261,0.2785545587539673
1773231962548728800,15.138728759765625,4.0042219161987305,0.6139195561408997,0.34208452701568604
1773231962564722200,15.15472216796875,3.857614040374756,0.7287622094154358,0.37262779474258423
1773231962580711200,15.170711181640625,3.682295799255371,0.7568620443344116,0.3646865487098694
1773231962596734500,15.186734375,3.4519994258880615,0.7422012686729431,0.33169981837272644
1773231962612727300,15.202727294921875,3.1642820835113525,0.6670648455619812,0.31154128909111023
1773231962628716000,15.218716064453124,2.8625144958496094,0.5687155723571777,0.31154128909111023
1773231962644738000,15.234738037109375,2.5442538261413574,0.4715879559516907,0.2968805134296417
1773231962660728300,15.250728271484375,2.2174408435821533,0.35246923565864563,0.24923302233219147
1773231962676719600,15.2667197265625,1.8509217500686646,0.2675589919090271,0.19120082259178162
1773231962692712200,15.282712158203125,1.4685200452804565,0.21319197118282318,0.15393804013729095
1773231962708732700,15.298732666015624,1.0616837739944458,0.1973094791173935,0.11239920556545258
1773231962724724200,15.31472412109375,0.6261368989944458,0.20036379992961884,0.060475658625364304
1773231962740716300,15.33071630859375,0.11362093687057495,0.20830504596233368,-0.01466076634824276
1773231962756737300,15.3467373046875,-0.45631635189056396,0.18325957655906677,-0.11362093687057495
1773231962772729300,15.362729248046875,-1.014647126197815,0.1062905490398407,-0.2028072625398636
1773231962788721400,15.378721435546876,-1.510058879852295,-0.009162978269159794,-0.26083946228027344
1773231962804711200,15.394711181640625,-1.929112434387207,-0.1313360333442688,-0.2791654169559479
1773231962820733000,15.41073291015625,-2.3017401695251465,-0.2590068578720093,-0.2791654169559479
1773231962836723700,15.4267236328125,-2.5815165042877197,-0.3194825351238251,-0.22907446324825287
1773231962852716500,15.442716552734375,-2.7403414249420166,-0.37629300355911255,-0.2028072625398636
1773231962868738600,15.458738525390626,-2.831360340118408,-0.4434881806373596,-0.2272418737411499
1773231962884727800,15.474727783203125,-2.891836166381836,-0.494189977645874,-0.3066543638706207
1773231962900718600,15.490718505859375,-2.981022357940674,-0.5412266254425049,-0.40622538328170776
1773231962916710000,15.5067099609375,-3.1105258464813232,-0.588263213634491,-0.46303585171699524
1773231962932734200,15.522734130859375,-3.260798692703247,-0.5968153476715088,-0.4300491213798523
1773231962948723200,15.53872314453125,-3.3707544803619385,-0.5681046843528748,-0.33536502718925476
1773231962964714500,15.554714599609374,-3.344487190246582,-0.49235737323760986,-0.192422553896904
1773231962980735700,15.57073583984375,-3.1917707920074463,-0.38240164518356323,-0.06536258012056351
1773231962996727300,15.586727294921875,-2.9773571491241455,-0.2724458873271942,-0.02321287989616394
1773231963012718600,15.602718505859375,-2.819143056869507,-0.18570303916931152,-0.10262536257505417
1773231963028710100,15.618710205078125,-2.7433958053588867,-0.1459967941045761,-0.2632829248905182
1773231963044733000,15.63473291015625,-2.7452285289764404,-0.18020524084568024,-0.46181413531303406
1773231963060722700,15.65072265625,-2.758056640625,-0.27977627515792847,-0.6200281977653503
1773231963076715000,15.666715087890625,-2.7507262229919434,-0.3701843321323395,-0.7067710757255554
1773231963092738600,15.682738525390626,-2.713463306427002,-0.4245513379573822,-0.7440338730812073
1773231963108726500,15.6987265625,-2.6505444049835205,-0.47769662737846375,-0.7556403279304504
1773231963124719000,15.714718994140625,-2.590679407119751,-0.5357288122177124,-0.7464773058891296
1773231963140708600,15.73070849609375,-2.484999895095825,-0.5943718552589417,-0.7141014933586121
1773231963156731000,15.74673095703125,-2.310903310775757,-0.5864306092262268,-0.6701191663742065
1773231963172724200,15.76272412109375,-2.0757200717926025,-0.5167919993400574,-0.6475171446800232
1773231963188713000,15.778712890625,-1.816102385520935,-0.4251621961593628,-0.6426302194595337
1773231963204734700,15.794734619140625,-1.5723671913146973,-0.32986724376678467,-0.607200026512146
1773231963220726800,15.810726806640625,-1.3420709371566772,-0.251676470041275,-0.5167919993400574
1773231963236718800,15.82671875,-1.1032226085662842,-0.20402899384498596,-0.4190535545349121
1773231963252710000,15.8427099609375,-0.8338310718536377,-0.19914206862449646,-0.37262779474258423
1773231963268731100,15.858731201171874,-0.5271766781806946,-0.19792033731937408,-0.3683517575263977
1773231963284722200,15.87472216796875,-0.16310101747512817,-0.29626965522766113,-0.2877175211906433
1773231963300713000,15.890712890625,0.19608774781227112,-0.3854559659957886,-0.0354301854968071
1773231963316736000,15.906736083984375,0.5064072608947754,-0.3323107063770294,0.34513887763023376
1773231963332728000,15.92272802734375,0.8399397134780884,-0.039706241339445114,0.6805039048194885
1773231963348717800,15.9387177734375,1.3048081398010254,0.36224308609962463,0.8662069439888
1773231963364709000,15.954709228515625,1.8087719678878784,0.7226535677909851,0.9321803450584412
1773231963380730600,15.970730712890624,2.2284364700317383,0.949895441532135,0.9199630618095398
1773231963396723500,15.986723388671875,2.517986536026001,1.0409144163131714,0.8399397134780884
1773231963412715500,16.002715576171877,2.730567693710327,0.9645562171936035,0.7550294399261475
1773231963428735500,16.018735595703124,2.92543363571167,0.7519751191139221,0.6896668672561646
1773231963444725000,16.03472509765625,3.1282408237457275,0.5174028873443604,0.5949827432632446
1773231963460717000,16.050717041015623,3.352428436279297,0.2919935882091522,0.4544837474822998
1773231963476708400,16.066708251953123,3.5943310260772705,0.07696902006864548,0.2834414839744568
1773231963492732000,16.08273193359375,3.7592647075653076,-0.04459316283464432,0.16065755486488342
1773231963508721400,16.098721435546874,3.8282926082611084,-0.10812314599752426,0.11789698898792267
1773231963524711700,16.114711669921874,3.8374555110931396,-0.06780604273080826,0.1472185254096985
1773231963540733000,16.13073291015625,3.788586139678955,0.07147123664617538,0.2968805134296417
1773231963556724700,16.146724853515625,3.7091736793518066,0.24007004499435425,0.5051855444908142
1773231963572718800,16.16271875,3.6083810329437256,0.4001167416572571,0.6475171446800232
1773231963588739300,16.1787392578125,3.4917056560516357,0.4899139404296875,0.6817256212234497
1773231963604731000,16.19473095703125,3.297450542449951,0.5387831330299377,0.646295428276062
1773231963620720600,16.210720703125,3.0561587810516357,0.5607742667198181,0.6059783101081848
1773231963636711000,16.2267109375,2.760499954223633,0.5424483418464661,0.5638286471366882
1773231963652735700,16.24273583984375,2.4666738510131836,0.5174028873443604,0.5210680365562439
1773231963668725500,16.2587255859375,2.1838431358337402,0.475253164768219,0.45875978469848633
1773231963684715000,16.274715087890623,1.9181169271469116,0.4001167416572571,0.33597588539123535
1773231963700737000,16.290737060546874,1.6041321754455566,0.3182607889175415,0.1814269721508026
1773231963716727800,16.306727783203126,1.238223910331726,0.2321287989616394,0.036041051149368286
1773231963732722200,16.32272216796875,0.8014551997184753,0.1466076523065567,-0.11484266817569733
1773231963748713200,16.338713134765626,0.32009339332580566,0.08368854224681854,-0.2687807083129883
1773231963764735500,16.354735595703126,-0.1612684279680252,0.028099801391363144,-0.43676865100860596
1773231963780723500,16.370723388671873,-0.6585127115249634,-0.05925392732024193,-0.6230825781822205
1773231963796714800,16.38671484375,-1.1545352935791016,-0.14416420459747314,-0.7605272531509399
1773231963812739000,16.402739013671876,-1.5931365489959717,-0.2278527319431305,-0.8319984674453735
1773231963828728300,16.418728271484376,-1.9614882469177246,-0.2822197377681732,-0.8753699064254761
1773231963844720000,16.43472021484375,-2.3017401695251465,-0.3243694305419922,-0.8943067193031311
1773231963860711200,16.450711181640624,-2.574186086654663,-0.4129449129104614,-0.8662069439888
1773231963876732700,16.466732666015623,-2.6762006282806396,-0.5821545720100403,-0.7623597979545593
1773231963892723200,16.48272314453125,-2.582127332687378,-0.7250970602035522,-0.6395758986473083
1773231963908714800,16.49871484375,-2.47094988822937,-0.8356636762619019,-0.48747047781944275
1773231963924736800,16.51473681640625,-2.4868323802948,-0.8417723178863525,-0.34086281061172485
1773231963940729900,16.530729736328126,-2.601675033569336,-0.7037167549133301,-0.17592918872833252
1773231963956719000,16.546718994140626,-2.7934868335723877,-0.45875978469848633,-0.003054326167330146
1773231963972725200,16.562725341796874,-2.9822440147399902,-0.19975294172763824,0.1111774742603302
1773231963988732400,16.578732421875,-3.087312936782837,-0.030543262138962746,0.13255776464939117
1773231964004723200,16.59472314453125,-3.1105258464813232,0.02871066704392433,0.054367005825042725
1773231964020714800,16.61071484375,-3.1056389808654785,-0.0012217304902151227,-0.06230825558304787
1773231964036737000,16.626737060546876,-3.0854804515838623,-0.06719517707824707,-0.14782938361167908
1773231964052728000,16.64272802734375,-3.126408338546753,-0.14416420459747314,-0.14844025671482086
1773231964068717600,16.658717529296876,-3.19054913520813,-0.19058994948863983,-0.051312681287527084
1773231964084710000,16.6747099609375,-3.210096836090088,-0.15393804013729095,0.07880161702632904
1773231964100731100,16.690731201171875,-3.128851890563965,-0.06352998316287994,0.15515977144241333
1773231964116723500,16.706723388671875,-2.9547553062438965,0.016493361443281174,0.14782938361167908
1773231964132727600,16.7227275390625,-2.744006633758545,-0.019547687843441963,0.06352998316287994
1773231964148748500,16.73874853515625,-2.528982162475586,-0.13072516024112701,-0.05253441259264946
1773231964164738300,16.75473828125,-2.299907684326172,-0.25534167885780334,-0.16310101747512817
1773231964180730000,16.770730224609373,-2.052507162094116,-0.3830125033855438,-0.2871066629886627
1773231964196721400,16.786721435546873,-1.7611244916915894,-0.47830748558044434,-0.3878994286060333
1773231964212743400,16.802743408203124,-1.4618005752563477,-0.5320636034011841,-0.40072759985923767
1773231964228735000,16.81873486328125,-1.1728612184524536,-0.5351179838180542,-0.2834414839744568
1773231964244726500,16.8347265625,-0.8692612648010254,-0.494189977645874,-0.09529497474431992
1773231964260746800,16.850746826171875,-0.598647952079773,-0.38667771220207214,0.0555887371301651
1773231964276740000,16.866739990234375,-0.3188716471195221,-0.2376265823841095,0.12339477986097336
1773231964292732200,16.882732177734376,0.00366519158706069,-0.0959058403968811,0.252287358045578
1773231964308750800,16.898750732421874,0.3628539443016052,0.1111774742603302,0.4691445231437683
1773231964324742100,16.9147421875,0.8087855577468872,0.4001167416572571,0.5717698931694031
1773231964340733400,16.9307333984375,1.3836097717285156,0.6640105247497559,0.4404338300228119
1773231964356724500,16.946724365234374,1.9804251194000244,0.789237916469574,0.2028072625398636
1773231964372748000,16.962748046875,2.4892759323120117,0.8032878041267395,-0.04764748737215996
1773231964388739800,16.97873974609375,2.8686232566833496,0.6933320760726929,-0.28527405858039856
1773231964404729600,16.9947294921875,3.103806257247925,0.4660901725292206,-0.4660901725292206
1773231964420752100,17.010752197265624,3.274237632751465,0.17592918872833252,-0.5778785347938538
1773231964436743000,17.026742919921876,3.4159584045410156,-0.0555887371301651,-0.608421802520752
1773231964452735200,17.0427353515625,3.5387423038482666,-0.23090706765651703,-0.5864306092262268
1773231964468727300,17.058727294921876,3.6419785022735596,-0.3335324227809906,-0.4948008358478546
1773231964484747500,17.07474755859375,3.713449716567993,-0.33169981837272644,-0.30115658044815063
1773231964500736800,17.09073681640625,3.7342193126678467,-0.21380282938480377,-0.06169738993048668
1773231964516728600,17.106728515625,3.74582576751709,-0.009773843921720982,0.19853121042251587
1773231964532721400,17.122721435546875,3.717725992202759,0.23273965716362,0.43615779280662537
1773231964548741000,17.1387412109375,3.634648323059082,0.4856378734111786,0.6298020482063293
1773231964564733200,17.154733154296874,3.4965927600860596,0.6884451508522034,0.7550294399261475
1773231964580724500,17.170724365234374,3.3267722129821777,0.7898487448692322,0.799011766910553
1773231964596745700,17.186745849609373,3.1111366748809814,0.8436049222946167,0.7996225953102112
1773231964612739300,17.2027392578125,2.8466320037841797,0.8484918475151062,0.7867944240570068
1773231964628729000,17.21872900390625,2.540588617324829,0.7929030656814575,0.7458664774894714
1773231964644750800,17.234750732421876,2.2015583515167236,0.7287622094154358,0.684779942035675
1773231964660741000,17.2507412109375,1.8558086156845093,0.6615670323371887,0.5839871764183044
1773231964676734500,17.266734375,1.5308283567428589,0.5943718552589417,0.43188172578811646
1773231964692725800,17.282725830078125,1.1997393369674683,0.5112941861152649,0.24678955972194672
1773231964708745700,17.298745849609375,0.8344419002532959,0.4251621961593628,0.0354301854968071
1773231964724736500,17.314736572265623,0.4398229718208313,0.31581732630729675,-0.17409659922122955
1773231964740727800,17.330727783203123,0.01771509274840355,0.15821409225463867,-0.37751471996307373
1773231964756749600,17.34674951171875,-0.3988949954509735,-0.012828170321881771,-0.5290092825889587
1773231964772713200,17.362713134765624,-0.7611380815505981,-0.18509216606616974,-0.6114761233329773
1773231964788734000,17.37873388671875,-1.1246029138565063,-0.3445279896259308,-0.6224716901779175
1773231964804723500,17.394723388671874,-1.4947872161865234,-0.42149701714515686,-0.5375614166259766
1773231964820746200,17.410746337890625,-1.872912883758545,-0.46242499351501465,-0.4092797040939331
1773231964836736000,17.426736083984373,-2.230268955230713,-0.4789183437824249,-0.2632829248905182
1773231964852728000,17.44272802734375,-2.4434609413146973,-0.5064072608947754,-0.10812314599752426
1773231964868748300,17.458748291015624,-2.475836753845215,-0.5583308339118958,0.04337143152952194
1773231964884741000,17.4747412109375,-2.4019222259521484,-0.6059783101081848,0.14966198801994324
1773231964900732400,17.490732421875,-2.3328943252563477,-0.646906316280365,0.19364428520202637
1773231964916722700,17.50672265625,-2.342057466506958,-0.6884451508522034,0.20463985204696655
1773231964932745500,17.522745361328123,-2.456289052963257,-0.694553792476654,0.2217440903186798
1773231964948736800,17.53873681640625,-2.6426031589508057,-0.6047565937042236,0.24129177629947662
1773231964964727300,17.554727294921875,-2.7959301471710205,-0.45814892649650574,0.22052235901355743
1773231964980750000,17.57075,-2.83074951171875,-0.34208452701568604,0.1466076523065567
1773231964996739600,17.586739501953126,-2.7140743732452393,-0.304210901260376,0.06169738993048668
1773231965012733400,17.6027333984375,-2.534479856491089,-0.3029891550540924,-0.07024950534105301
1773231965028723200,17.61872314453125,-2.456900119781494,-0.3530801236629486,-0.25961771607398987
1773231965044744000,17.634743896484373,-2.523484230041504,-0.4251621961593628,-0.42699480056762695
1773231965060735200,17.6507353515625,-2.6450464725494385,-0.513737678527832,-0.5112941861152649
1773231965076727600,17.6667275390625,-2.7348437309265137,-0.5803219676017761,-0.4960225820541382
1773231965092751000,17.682751220703125,-2.752558708190918,-0.5693264007568359,-0.4404338300228119
1773231965108741000,17.6987412109375,-2.7030787467956543,-0.5369505286216736,-0.3927863538265228
1773231965124730400,17.71473046875,-2.6004533767700195,-0.475253164768219,-0.32681289315223694
1773231965140724500,17.730724365234376,-2.498438835144043,-0.3995058834552765,-0.2681698501110077
1773231965156745700,17.746745849609376,-2.4000895023345947,-0.303600013256073,-0.2376265823841095
1773231965172737800,17.76273779296875,-2.2742512226104736,-0.20341812074184418,-0.25961771607398987
1773231965188728800,17.778728759765624,-2.0696115493774414,-0.13988813757896423,-0.2822197377681732
1773231965204750300,17.794750244140626,-1.7654005289077759,-0.07757988572120667,-0.25045475363731384
1773231965220739600,17.810739501953126,-1.4379768371582031,-0.04092797264456749,-0.1569923609495163
1773231965236730400,17.82673046875,-1.1288789510726929,-0.03726277872920036,-0.03787364438176155
1773231965252724000,17.842723876953126,-0.836885392665863,0.019547687843441963,0.025045474991202354
1773231965268745700,17.858745849609374,-0.5027421116828918,0.09712757170200348,0.07819075137376785
1773231965284734500,17.874734375,-0.1722639948129654,0.13744467496871948,0.25534167885780334
1773231965300727000,17.89072705078125,0.14966198801994324,0.2767219543457031,0.5436700582504272
1773231965316747300,17.906747314453124,0.49724429845809937,0.5589417219161987,0.685390830039978
1773231965332739000,17.922739013671876,0.9932668805122375,0.8546004891395569,0.6243042945861816
1773231965348731400,17.9387314453125,1.615127682685852,1.0494664907455444,0.49296826124191284
1773231965364752600,17.954752685546875,2.1587977409362793,1.131933331489563,0.3225368559360504
1773231965380742400,17.970742431640623,2.5222625732421875,1.1239920854568481,0.13866640627384186
1773231965396736000,17.986736083984376,2.7128524780273438,1.0170906782150269,-0.021991148591041565
1773231965412727600,18.0027275390625,2.8240299224853516,0.8344419002532959,-0.16065755486488342
1773231965428749600,18.01874951171875,2.9095511436462402,0.6542366743087769,-0.24007004499435425
1773231965444740000,18.034739990234375,3.0164525508880615,0.5064072608947754,-0.3029891550540924
1773231965460731100,18.050731201171875,3.131906032562256,0.3830125033855438,-0.34208452701568604
1773231965476722400,18.066722412109375,3.2088751792907715,0.29504790902137756,-0.3176499307155609
1773231965492743700,18.08274365234375,3.2559118270874023,0.252287358045578,-0.23884831368923187
1773231965508733200,18.098733154296873,3.2760703563690186,0.2474004179239273,-0.1563815027475357
1773231965524725200,18.114725341796873,3.2681291103363037,0.30482175946235657,-0.09468411654233932
1773231965540747800,18.130747802734376,3.2259793281555176,0.42271876335144043,-0.015882495790719986
1773231965556738000,18.146738037109376,3.1642820835113525,0.5351179838180542,0.06902777403593063
1773231965572728300,18.162728271484376,3.0714304447174072,0.655458390712738,0.11789698898792267
1773231965588721200,18.17872119140625,2.944981336593628,0.7202101349830627,0.11728613078594208
1773231965604743200,18.1947431640625,2.775160789489746,0.7031059265136719,0.09285151958465576
1773231965620733000,18.21073291015625,2.56563401222229,0.675616979598999,0.05619960278272629
1773231965636725200,18.226725341796875,2.3316726684570312,0.6359107494354248,-0.006108652334660292
1773231965652747800,18.242747802734375,2.1093177795410156,0.5522221922874451,-0.1270599663257599
1773231965668739800,18.25873974609375,1.8942930698394775,0.43127086758613586,-0.33292156457901
1773231965684729000,18.27472900390625,1.6194037199020386,0.25961771607398987,-0.6212499737739563
1773231965700752000,18.290751953125,1.2699888944625854,0.07452555745840073,-0.8888089060783386
1773231965716741000,18.3067412109375,0.8729264140129089,-0.12095131725072861,-1.064738154411316
1773231965732734000,18.32273388671875,0.44165557622909546,-0.28649580478668213,-1.1142182350158691
1773231965748723500,18.338723388671873,0.007941247895359993,-0.40683624148368835,-1.0543533563613892
1773231965764745700,18.354745849609376,-0.4196644127368927,-0.5002986192703247,-0.9053022861480713
1773231965780737500,18.370737548828124,-0.8594874143600464,-0.513737678527832,-0.6976081132888794
1773231965796729300,18.386729248046876,-1.274264931678772,-0.4447098970413208,-0.46242499351501465
1773231965812750800,18.402750732421875,-1.6493362188339233,-0.35246923565864563,-0.2480112910270691
1773231965828742700,18.41874267578125,-1.9535470008850098,-0.2840523421764374,-0.036041051149368286
1773231965844734700,18.434734619140624,-2.155132532119751,-0.27488934993743896,0.17776179313659668
1773231965860723200,18.45072314453125,-2.2241604328155518,-0.2773328125476837,0.39767327904701233
1773231965876747000,18.4667470703125,-2.230268955230713,-0.2938261926174164,0.5858197808265686
1773231965892737500,18.482737548828126,-2.241264581680298,-0.3335324227809906,0.7232644557952881
1773231965908727300,18.498727294921874,-2.298074960708618,-0.4239404797554016,0.826500654220581
1773231965924748500,18.51474853515625,-2.4190263748168945,-0.5155702829360962,0.9205739498138428
1773231965940740900,18.530740966796873,-2.5644123554229736,-0.5455026626586914,1.0140362977981567
1773231965956733400,18.5467333984375,-2.66337251663208,-0.5076290369033813,1.0726794004440308
1773231965972724500,18.562724365234374,-2.6737570762634277,-0.4098905920982361,1.062294602394104
1773231965988744200,18.578744140625,-2.629163980484009,-0.29138273000717163,1.0018190145492554
1773231966004738000,18.594738037109376,-2.598620653152466,-0.2119702398777008,0.9004153609275818
1773231966020727000,18.61072705078125,-2.6450464725494385,-0.13866640627384186,0.816726803779602
1773231966036748500,18.62674853515625,-2.7531697750091553,-0.08674286305904388,0.8026769161224365
1773231966052742700,18.64274267578125,-2.872899293899536,-0.0861319974064827,0.8283332586288452
1773231966068732700,18.658732666015624,-2.961474657058716,-0.10201449692249298,0.8283332586288452
1773231966084724000,18.674723876953124,-2.9798007011413574,-0.08246681094169617,0.7898487448692322
1773231966100745000,18.690744873046874,-2.9022207260131836,-0.07208210229873657,0.7073819637298584
1773231966116735700,18.70673583984375,-2.7433958053588867,-0.0659734457731247,0.6340781450271606
1773231966132728300,18.722728271484375,-2.5314254760742188,-0.10323622822761536,0.6053674817085266
1773231966148748500,18.73874853515625,-2.27852725982666,-0.14844025671482086,0.5656611919403076
1773231966164740000,18.754739990234373,-1.9492709636688232,-0.15821409225463867,0.4550946056842804
1773231966180731600,18.770731689453125,-1.5326608419418335,-0.10934487730264664,0.28466320037841797
1773231966196722200,18.78672216796875,-1.0873401165008545,0.006719517521560192,0.09162978827953339
1773231966212744400,18.802744384765624,-0.6792821288108826,0.10384709388017654,-0.1014036312699318
1773231966228734500,18.818734375,-0.3237585723400116,0.16249015927314758,-0.3029891550540924
1773231966244727300,18.834727294921876,0.01160643994808197,0.2583959996700287,-0.485027015209198
1773231966260747800,18.850747802734375,0.3805690407752991,0.25595253705978394,-0.607200026512146
1773231966276739600,18.866739501953123,0.7544185519218445,0.11484266817569733,-0.5797111392021179
1773231966292730600,18.882730712890623,1.0989465713500977,0.027488935738801956,-0.4764748811721802
1773231966308723200,18.89872314453125,1.4385876655578613,0.11178833991289139,-0.4538728892803192
1773231966324744700,18.91474462890625,1.8588629961013794,0.3188716471195221,-0.5442809462547302
1773231966340734500,18.930734375,2.3457224369049072,0.5021312236785889,-0.684779942035675
1773231966356726300,18.946726318359374,2.785545587539673,0.5393940210342407,-0.7360926270484924
1773231966372750300,18.962750244140626,3.0940325260162354,0.47769662737846375,-0.7263187766075134
1773231966388738600,18.978738525390625,3.2766811847686768,0.34697145223617554,-0.6884451508522034
1773231966404730000,18.994730224609373,3.3927454948425293,0.2125810980796814,-0.59803706407547
1773231966420752400,19.01075244140625,3.464216709136963,0.1160643994808197,-0.4593706727027893
1773231966436743700,19.02674365234375,3.5130860805511475,0.05925392732024193,-0.2840523421764374
1773231966452735000,19.04273486328125,3.5552356243133545,0.05925392732024193,-0.09162978827953339
1773231966468725500,19.0587255859375,3.584557294845581,0.1258382350206375,0.10262536257505417
1773231966484746500,19.07474658203125,3.5692856311798096,0.24434609711170197,0.27550023794174194
1773231966500740400,19.090740234375,3.5191946029663086,0.3885102868080139,0.4349360466003418
1773231966516731600,19.106731689453124,3.4629950523376465,0.5308418869972229,0.5277875661849976
1773231966532723200,19.12272314453125,3.3463199138641357,0.6304129362106323,0.5870414972305298
1773231966548745000,19.138744873046875,3.141069173812866,0.6927211880683899,0.636521577835083
1773231966564736300,19.154736328125,2.889392614364624,0.7055493593215942,0.6530149579048157
1773231966580724500,19.170724365234374,2.6340508460998535,0.6835582256317139,0.656680166721344
1773231966596747300,19.186747314453125,2.3652701377868652,0.6890559792518616,0.6426302194595337
1773231966612740600,19.20274072265625,2.0928242206573486,0.6633996367454529,0.5900958180427551
1773231966628731000,19.21873095703125,1.785559058189392,0.6334672570228577,0.49235737323760986
1773231966644752600,19.234752685546876,1.431868076324463,0.6224716901779175,0.34147366881370544
1773231966660741600,19.25074169921875,1.0561859607696533,0.5497786998748779,0.13072516024112701
1773231966676733200,19.266733154296876,0.6688974499702454,0.4251621961593628,-0.0757472887635231
1773231966692726500,19.2827265625,0.30970868468284607,0.2565633952617645,-0.25961771607398987
1773231966708747500,19.29874755859375,-0.024434609338641167,0.05497787147760391,-0.43737950921058655
1773231966724737500,19.314737548828123,-0.3738495409488678,-0.16065755486488342,-0.5870414972305298
1773231966740728300,19.330728271484375,-0.7385360598564148,-0.35185837745666504,-0.6316346526145935
1773231966756751400,19.34675146484375,-1.1166616678237915,-0.4856378734111786,-0.5442809462547302
1773231966772743200,19.3627431640625,-1.49906325340271,-0.49296826124191284,-0.35735616087913513
1773231966788734500,19.378734375,-1.8185458183288574,-0.4147774875164032,-0.16554448008537292
1773231966804723500,19.394723388671874,-2.0916025638580322,-0.30970868468284607,-0.01771509274840355
1773231966820745200,19.4107451171875,-2.2876904010772705,-0.24984388053417206,0.09957103431224823
1773231966836736500,19.426736572265625,-2.375654935836792,-0.26083946228027344,0.1869247704744339
1773231966852164600,19.44216455078125,-2.3823745250701904,-0.3023782968521118,0.2431243658065796
1773231966868751400,19.45875146484375,-2.367713689804077,-0.3854559659957886,0.26145032048225403
1773231966884741000,19.4747412109375,-2.39520263671875,-0.5296201705932617,0.23335053026676178
1773231966900732700,19.490732666015624,-2.487443208694458,-0.7134906053543091,0.19608774781227112
1773231966916724500,19.506724365234376,-2.6542093753814697,-0.8753699064254761,0.18875735998153687
1773231966932748300,19.522748291015624,-2.8093693256378174,-0.9187413454055786,0.24007004499435425
1773231966948736500,19.538736572265623,-2.869234085083008,-0.8405506014823914,0.303600013256073
1773231966964727800,19.554727783203123,-2.8075366020202637,-0.6957755088806152,0.33108896017074585
1773231966980749800,19.570749755859374,-2.6988027095794678,-0.5277875661849976,0.2926044464111328
1773231966996741400,19.586741455078126,-2.6597073078155518,-0.40683624148368835,0.21135938167572021
1773231967012732700,19.602732666015626,-2.699413537979126,-0.33292156457901,0.14355333149433136
1773231967028725200,19.618725341796875,-2.7702739238739014,-0.3170390725135803,0.08674286305904388
1773231967044745000,19.634744873046873,-2.8258626461029053,-0.3549126982688904,0.033597588539123535
1773231967060737300,19.6507373046875,-2.7989845275878906,-0.3805690407752991,0.02382374368607998
1773231967076727000,19.66672705078125,-2.6920831203460693,-0.403781920671463,0.01038470957428217
1773231967092750300,19.682750244140625,-2.5644123554229736,-0.4294382631778717,-0.025656340643763542
1773231967108739600,19.698739501953124,-2.428800106048584,-0.48869219422340393,-0.07147123664617538
1773231967124733000,19.71473291015625,-2.274862289428711,-0.5442809462547302,-0.10018189996480942
1773231967140723200,19.73072314453125,-2.0647244453430176,-0.5357288122177124,-0.06719517707824707
1773231967156744000,19.746743896484375,-1.8118263483047485,-0.44654250144958496,0.02321287989616394
1773231967172738000,19.762738037109376,-1.5344934463500977,-0.2974913716316223,0.15821409225463867
1773231967188726500,19.7787265625,-1.238223910331726,-0.0354301854968071,0.36651915311813354
1773231967204749300,19.794749267578126,-0.96883225440979,0.3066543638706207,0.6108652353286743
1773231967220740900,19.810740966796875,-0.6914994716644287,0.6029239892959595,0.807563841342926
1773231967236730600,19.826730712890626,-0.35735616087913513,0.8338310718536377,0.8991936445236206
1773231967252724500,19.842724365234375,0.06291911751031876,0.8558222055435181,0.8930850028991699
1773231967268745000,19.858744873046874,0.5424483418464661,0.684779942035675,0.8527678847312927
1773231967284737800,19.87473779296875,0.988990843296051,0.5418374538421631,0.7641924023628235
1773231967300727000,19.89072705078125,1.3994922637939453,0.5186246037483215,0.5100724697113037
1773231967316749600,19.90674951171875,1.8490891456604004,0.5998696684837341,0.13439035415649414
1773231967332740900,19.922740966796876,2.3438899517059326,0.6902777552604675,-0.2168571650981903
1773231967348731600,19.938731689453125,2.7953193187713623,0.7342600226402283,-0.5210680365562439
1773231967364754000,19.95475390625,3.135571241378784,0.7061602473258972,-0.8051204085350037
1773231967380744700,19.97074462890625,3.3591480255126953,0.5259549617767334,-1.0519099235534668
1773231967396735700,19.98673583984375,3.523470640182495,0.28038713335990906,-1.2113457918167114
1773231967412728300,20.002728271484376,3.640146017074585,0.02932153269648552,-1.264491081237793
1773231967428747800,20.018747802734374,3.7336084842681885,-0.17470745742321014,-1.2211196422576904
1773231967444742100,20.0347421875,3.8179078102111816,-0.3017674386501312,-1.1105530261993408
1773231967460732000,20.05073193359375,3.857614040374756,-0.36163222789764404,-0.9376781582832336
1773231967476722000,20.066721923828126,3.8423423767089844,-0.34208452701568604,-0.7183775305747986
1773231967492745200,20.0827451171875,3.7788124084472656,-0.24434609711170197,-0.49296826124191284
1773231967508736800,20.09873681640625,3.673743486404419,-0.09040805697441101,-0.2840523421764374
1773231967524728300,20.114728271484374,3.528357744216919,0.09224065393209457,-0.07330382615327835
1773231967540748000,20.130748046875,3.34204363822937,0.30115658044815063,0.11362093687057495
1773231967556740000,20.146739990234376,3.160005807876587,0.4960225820541382,0.25961771607398987
