time,seconds_elapsed,z,y,x
1773231947716732000,0.30673193359375,0.20036379992961884,0.2822197377681732,-0.1368338167667389
1773231947732724000,0.322723876953125,0.20036379992961884,0.2822197377681732,-0.1368338167667389
1773231947748715800,0.3387158203125,0.20036379992961884,0.2822197377681732,-0.1368338167667389
1773231947764745000,0.354744873046875,0.20036379992961884,0.2822197377681732,-0.1368338167667389
1773231947780728600,0.370728515625,0.20036379992961884,0.2822197377681732,-0.1368338167667389
1773231947796719000,0.386718994140625,0.20036379992961884,0.2822197377681732,-0.1368338167667389
1773231947812743000,0.402742919921875,0.16432274878025055,-0.21319197118282318,0.20463985204696655
1773231947828733200,0.418733154296875,0.15515977144241333,-0.19975294172763824,0.18081611394882202
1773231947844723700,0.4347236328125,0.13561208546161652,-0.1319468915462494,0.1258382350206375
1773231947860713500,0.45071337890625,0.12461651116609573,0.015882495790719986,0.042760565876960754
1773231947876737500,0.466737548828125,0.1313360333442688,0.2919935882091522,-0.08002334833145142
1773231947892727600,0.4827275390625,0.11789698898792267,0.36224308609962463,-0.11484266817569733
1773231947908719000,0.498718994140625,0.06780604273080826,0.26450464129447937,-0.04948008432984352
1773231947924739300,0.5147392578125,-0.1270599663257599,0.3139847218990326,0.08491026610136032
1773231947940732400,0.530732421875,-0.182648703455925,0.28527405858039856,0.1313360333442688
1773231947956722400,0.546722412109375,-0.10812314599752426,0.23518311977386475,0.13866640627384186
1773231947972715800,0.5627158203125,-0.05314527451992035,0.28038713335990906,0.15760323405265808
1773231947988734700,0.578734619140625,-0.04948008432984352,0.37140607833862305,0.11178833991289139
1773231948004726500,0.5947265625,-0.060475658625364304,0.39706242084503174,-0.01160643994808197
1773231948020717000,0.610717041015625,-0.0659734457731247,0.3488040566444397,-0.1014036312699318
1773231948036741000,0.6267412109375,-0.07391469180583954,0.2480112910270691,-0.11362093687057495
1773231948052732700,0.642732666015625,-0.08429940044879913,0.18997909128665924,-0.056810468435287476
1773231948068720600,0.658720703125,-0.08552113175392151,0.17104226350784302,0.03298672288656235
1773231948084745200,0.6747451171875,-0.09040805697441101,0.20463985204696655,0.04092797264456749
1773231948100734200,0.690734130859375,-0.10934487730264664,0.02382374368607998,-0.10262536257505417
1773231948116727300,0.706727294921875,-0.14844025671482086,-0.3182607889175415,-0.17776179313659668
1773231948132719000,0.722718994140625,-0.16859880089759827,-0.2431243658065796,0.04642575979232788
1773231948148740000,0.738739990234375,-0.15515977144241333,-0.2993239760398865,0.28038713335990906
1773231948164729900,0.754729736328125,-0.2577851414680481,-0.40622538328170776,0.48319441080093384
1773231948180722400,0.770722412109375,-0.34025195240974426,-0.3072652220726013,0.46303585171699524
1773231948196712700,0.786712646484375,-0.3781255781650543,-0.15271630883216858,0.2932153046131134
1773231948212737300,0.8027373046875,-0.28955012559890747,0.03176499158143997,0.05192354694008827
1773231948228725000,0.81872509765625,-0.04764748737215996,0.42577308416366577,-0.1514945775270462
1773231948244716300,0.83471630859375,0.19058994948863983,0.6212499737739563,-0.1417207419872284
1773231948260739800,0.85073974609375,0.31031954288482666,0.5546656250953674,0.19425514340400696
1773231948276730400,0.86673046875,0.3243694305419922,0.5729916095733643,0.618195652961731
1773231948292723200,0.88272314453125,0.3738495409488678,0.8863654732704163,1.0506882667541504
1773231948308713200,0.898713134765625,0.4337143301963806,1.3280210494995117,1.2651019096374512
1773231948324736500,0.914736572265625,0.4709770977497101,1.7153096199035645,1.351233959197998
1773231948340724700,0.930724853515625,0.42271876335144043,1.9058995246887207,1.2968668937683105
1773231948356716500,0.946716552734375,0.3891211748123169,1.8099937438964844,1.1429288387298584
1773231948372740400,0.962740234375,0.31520646810531616,1.4245377779006958,0.8741481900215149
1773231948388729000,0.97872900390625,0.1258382350206375,0.9718865752220154,0.3536909818649292
1773231948404721000,0.994720947265625,0.039706241339445114,0.9334021210670471,-0.10323622822761536
1773231948420743200,1.0107431640625,0.012217304669320583,0.6713408827781677,-0.5400048494338989
1773231948436733200,1.026733154296875,0.05742133408784866,0.2577851414680481,-0.7134906053543091
1773231948452725000,1.04272509765625,0.26083946228027344,-0.16065755486488342,-0.6676757335662842
1773231948468717300,1.05871728515625,0.5155702829360962,-0.30115658044815063,-0.5308418869972229
1773231948484737800,1.07473779296875,0.9492846131324768,-0.4605923891067505,-0.45142942667007446
1773231948500727800,1.090727783203125,1.0427470207214355,-0.5283984541893005,-0.49846604466438293
1773231948516720400,1.106720458984375,0.6420193910598755,-0.5393940210342407,-0.5711590051651001
1773231948532744000,1.122743896484375,0.22418753802776337,-0.45692721009254456,-0.6585127115249634
1773231948548734000,1.13873388671875,-0.04948008432984352,-0.35613444447517395,-0.8906415104866028
1773231948564724700,1.154724853515625,-0.1313360333442688,-0.1472185254096985,-1.0879509449005127
1773231948580716000,1.170716064453125,-0.3170390725135803,0.022602014243602753,-1.1093312501907349
1773231948596737800,1.18673779296875,-0.675616979598999,-0.10812314599752426,-0.8588765263557434
1773231948612730600,1.202730712890625,-0.7874053120613098,-0.4355469346046448,-0.5442809462547302
1773231948628721200,1.21872119140625,-0.6200281977653503,-0.7134906053543091,-0.18875735998153687
1773231948644741400,1.234741455078125,-0.3591887652873993,-0.5516113042831421,0.03481931984424591
1773231948660732200,1.250732177734375,-0.12889257073402405,-0.015271631069481373,0.2474004179239273
1773231948676722700,1.26672265625,-0.05864306539297104,0.4538728892803192,0.40133845806121826
1773231948692716000,1.282716064453125,-0.009773843921720982,0.7825183868408203,0.4764748811721802
1773231948708738300,1.29873828125,0.07880161702632904,0.7849618196487427,0.394008070230484
1773231948724727000,1.31472705078125,0.12889257073402405,0.5210680365562439,0.13744467496871948
1773231948740721000,1.330720947265625,0.1014036312699318,0.11545353382825851,-0.1820378452539444
1773231948756740900,1.346740966796875,0.04092797264456749,-0.34697145223617554,-0.5503895878791809
1773231948772734500,1.362734375,0.025656340643763542,-0.607810914516449,-0.6621779203414917
1773231948788724200,1.37872412109375,0.012828170321881771,-0.7935139536857605,-0.5601634383201599
1773231948804714800,1.39471484375,-0.11362093687057495,-0.8998045325279236,-0.3952298164367676
1773231948820735000,1.41073486328125,-0.24373523890972137,-0.9731083512306213,-0.15271630883216858
1773231948836728000,1.42672802734375,-0.24434609711170197,-0.8662069439888,0.04642575979232788
1773231948852718600,1.442718505859375,-0.15454891324043274,-0.46547931432724,0.23518311977386475
1773231948868741000,1.4587412109375,-0.06658431142568588,-0.04642575979232788,0.25045475363731384
1773231948884732000,1.47473193359375,0.04764748737215996,0.30054569244384766,0.16493362188339233
1773231948900723700,1.4907236328125,0.10812314599752426,0.2687807083129883,0.13377949595451355
1773231948916715300,1.50671533203125,0.056810468435287476,-0.00733038317412138,0.19058994948863983
1773231948932736000,1.522736083984375,-0.036651913076639175,-0.2724458873271942,0.26939156651496887
1773231948948725800,1.538725830078125,-0.11789698898792267,-0.4141666293144226,0.3280346393585205
1773231948964720000,1.55472021484375,-0.1160643994808197,-0.3445279896259308,0.31642818450927734
1773231948980740600,1.57074072265625,-0.04886921867728233,-0.18448130786418915,0.2480112910270691
1773231948996730400,1.58673046875,0.03787364438176155,-0.0708603709936142,0.1264491081237793
1773231949012722400,1.602722412109375,0.11056660860776901,-0.012217304669320583,-0.05314527451992035
1773231949028712400,1.61871240234375,0.09773843735456467,0.014049900695681572,-0.18020524084568024
1773231949044734500,1.634734375,0.039706241339445114,0.014049900695681572,-0.25961771607398987
1773231949060726000,1.65072607421875,0.02626720629632473,-0.018936822190880775,-0.29016098380088806
1773231949076717600,1.666717529296875,0.039095375686883926,-0.0708603709936142,-0.3488040566444397
1773231949092742000,1.682741943359375,0.02321287989616394,-0.0806342139840126,-0.3604104816913605
1773231949108731100,1.698731201171875,-0.05009094998240471,-0.07330382615327835,-0.2883284091949463
1773231949124721700,1.7147216796875,-0.09712757170200348,-0.13316862285137177,-0.16371189057826996
1773231949140715000,1.730715087890625,-0.05009094998240471,-0.21013765037059784,0.030543262138962746
1773231949156733400,1.7467333984375,-0.006108652334660292,-0.20402899384498596,0.18997909128665924
1773231949172724500,1.762724365234375,-0.05253441259264946,-0.09162978827953339,0.2871066629886627
1773231949188718000,1.778718017578125,-0.1160643994808197,-0.01710422709584236,0.2767219543457031
1773231949204738600,1.794738525390625,-0.16004669666290283,-0.06902777403593063,0.2064724564552307
1773231949220729300,1.810729248046875,-0.18509216606616974,-0.04459316283464432,0.09346238523721695
1773231949236723200,1.82672314453125,-0.25473082065582275,0.36163222789764404,-0.16310101747512817
1773231949252713700,1.842713623046875,-0.2974913716316223,0.740368664264679,-0.41599923372268677
1773231949268733700,1.858733642578125,-0.27977627515792847,0.8185594081878662,-0.4508185386657715
1773231949284724700,1.874724853515625,-0.2070833146572113,0.5338962078094482,-0.18997909128665924
1773231949300717600,1.890717529296875,-0.1820378452539444,0.036651913076639175,0.17409659922122955
1773231949316740400,1.906740234375,-0.1368338167667389,-0.20830504596233368,0.3323107063770294
1773231949332731000,1.92273095703125,-0.1661553531885147,-0.22663100063800812,0.21074850857257843
1773231949348721000,1.938720947265625,-0.18509216606616974,-0.0959058403968811,-0.03481931984424591
1773231949364712400,1.95471240234375,-0.18631389737129211,0.1319468915462494,-0.294437050819397
1773231949380733000,1.97073291015625,-0.17287486791610718,0.30970868468284607,-0.4337143301963806
1773231949396726300,1.986726318359375,-0.13439035415649414,0.28038713335990906,-0.47830748558044434
1773231949412718300,2.00271826171875,-0.11423180252313614,0.08368854224681854,-0.4392121136188507
1773231949428738600,2.018738525390625,-0.09529497474431992,-0.12461651116609573,-0.3787364661693573
1773231949444728600,2.034728515625,-0.07757988572120667,-0.2571742534637451,-0.2968805134296417
1773231949460719400,2.05071923828125,-0.04092797264456749,-0.21441370248794556,-0.19486601650714874
1773231949476742700,2.06674267578125,-0.009162978269159794,0.16310101747512817,-0.1014036312699318
1773231949492733700,2.082733642578125,-0.006108652334660292,0.2840523421764374,0.02076941914856434
1773231949508724000,2.098723876953125,-0.012828170321881771,0.3628539443016052,0.10690141469240189
1773231949524714500,2.114714599609375,-0.04764748737215996,0.192422553896904,0.13072516024112701
1773231949540738600,2.130738525390625,-0.09162978827953339,0.07452555745840073,0.06963863968849182
1773231949556728000,2.14672802734375,-0.13072516024112701,0,-0.06352998316287994
1773231949572719400,2.16271923828125,-0.13316862285137177,0.00733038317412138,-0.19120082259178162
1773231949588742100,2.1787421875,-0.07880161702632904,-0.004886921960860491,-0.26083946228027344
1773231949604733200,2.194733154296875,-0.05192354694008827,-0.06169738993048668,-0.19425514340400696
1773231949620725200,2.210725341796875,-0.024434609338641167,-0.0659734457731247,-0.033597588539123535
1773231949636714500,2.226714599609375,0.005497787147760391,0.06475171446800232,0.07635815441608429
1773231949652738800,2.24273876953125,0.012217304669320583,0.31154128909111023,0.08796459436416626
1773231949668728800,2.258728759765625,-0.00855211354792118,0.4489859640598297,0.01466076634824276
1773231949684719900,2.274719970703125,0.006719517521560192,0.4502076804637909,-0.12950342893600464
1773231949700742000,2.290741943359375,0.009162978269159794,0.34086281061172485,-0.2889392673969269
1773231949716733200,2.306733154296875,-0.01771509274840355,0.16737708449363708,-0.4648684561252594
1773231949732726300,2.322726318359375,0.012828170321881771,0.12217304855585098,-0.5705481171607971
1773231949748715800,2.3387158203125,0.09712757170200348,0.25045475363731384,-0.5668829679489136
1773231949764737500,2.354737548828125,0.1667662113904953,0.3188716471195221,-0.40194934606552124
1773231949780728600,2.370728515625,0.24129177629947662,0.18997909128665924,-0.05864306539297104
1773231949796720000,2.38672021484375,0.25045475363731384,0.04398229718208313,0.2583959996700287
1773231949812742100,2.4027421875,0.17592918872833252,-0.08368854224681854,0.5112941861152649
1773231949828732000,2.41873193359375,0.1362229436635971,-0.1569923609495163,0.6151412725448608
1773231949844722400,2.434722412109375,0.17104226350784302,-0.11301007121801376,0.6261368989944458
1773231949860713500,2.45071337890625,0.24007004499435425,0.10812314599752426,0.4813618063926697
1773231949876737800,2.46673779296875,0.2565633952617645,0.31520646810531616,0.1563815027475357
1773231949892727600,2.4827275390625,0.23518311977386475,0.3176499307155609,-0.09651670604944229
1773231949908717300,2.49871728515625,0.19792033731937408,0.16310101747512817,-0.11484266817569733
1773231949924739600,2.514739501953125,0.1466076523065567,-0.025045474991202354,0.10751228034496307
1773231949940731000,2.53073095703125,0.13377949595451355,-0.12889257073402405,0.3878994286060333
1773231949956721200,2.54672119140625,0.16859880089759827,0.04459316283464432,0.48319441080093384
1773231949972714800,2.56271484375,0.21991148591041565,0.4092797040939331,0.4648684561252594
1773231949988734700,2.578734619140625,0.252287358045578,0.7006624341011047,0.4031710624694824
1773231950004725800,2.594725830078125,0.20952677726745605,0.8307767510414124,0.32559117674827576
1773231950020718000,2.610718017578125,0.1667662113904953,0.8069530129432678,0.24556782841682434
1773231950036740400,2.626740234375,0.17776179313659668,0.7141014933586121,0.10567969083786011
1773231950052733000,2.64273291015625,0.16798794269561768,0.6035348773002625,-0.027488935738801956
1773231950068724500,2.658724365234375,0.13011430203914642,0.46853363513946533,-0.11850785464048386
1773231950084713700,2.674713623046875,0.07513642311096191,0.38728857040405273,-0.09712757170200348
1773231950100734500,2.690734375,0.029932396486401558,0.42760565876960754,-0.00733038317412138
1773231950116727300,2.706727294921875,0.048258353024721146,0.513737678527832,0.11484266817569733
1773231950132719400,2.72271923828125,0.03726277872920036,0.4550946056842804,0.33047810196876526
1773231950148738000,2.738738037109375,0.00855211354792118,0.2590068578720093,0.5455026626586914
1773231950164729600,2.7547294921875,0.005497787147760391,0.20097467303276062,0.7330383062362671
1773231950180720400,2.770720458984375,-0.04948008432984352,0.2736676335334778,0.7916813492774963
1773231950196713500,2.78671337890625,-0.14416420459747314,0.34513887763023376,0.7434229850769043
1773231950212734700,2.802734619140625,-0.24129177629947662,0.3549126982688904,0.7073819637298584
1773231950228726300,2.818726318359375,-0.3891211748123169,0.5027421116828918,0.6688974499702454
1773231950244716800,2.834716796875,-0.4453207552433014,0.7648032903671265,0.5491678714752197
1773231950260739600,2.850739501953125,-0.37629300355911255,0.9572258591651917,0.34758231043815613
1773231950276730400,2.86673046875,-0.16737708449363708,0.9382890462875366,0.2223549485206604
1773231950292721700,2.8827216796875,0.16065755486488342,0.6475171446800232,0.28955012559890747
1773231950308744400,2.898744384765625,0.2889392673969269,0.37262779474258423,0.42577308416366577
1773231950324733200,2.914733154296875,0.16310101747512817,0.2070833146572113,0.4550946056842804
1773231950340726000,2.93072607421875,0.04581489413976669,0.6065891981124878,0.4489859640598297
1773231950356716800,2.946716796875,-0.05925392732024193,1.3952162265777588,0.38728857040405273
1773231950372739800,2.96273974609375,-0.02687807008624077,1.7116444110870361,0.3494149148464203
1773231950388730600,2.978730712890625,0.05497787147760391,1.8991800546646118,0.33475416898727417
1773231950404719900,2.994719970703125,0.11362093687057495,1.9242255687713623,0.34025195240974426
1773231950420713000,3.010712890625,0.14233160018920898,1.7055357694625854,0.2877175211906433
1773231950436733200,3.026733154296875,0.20525072515010834,1.5601497888565063,0.22357667982578278
1773231950452726300,3.042726318359375,0.29138273000717163,1.309084177017212,0.02687807008624077
1773231950468715300,3.05871533203125,0.3170390725135803,1.0409144163131714,-0.09896016865968704
1773231950484736300,3.074736328125,0.13011430203914642,1.0250319242477417,-0.2785545587539673
1773231950500728800,3.090728759765625,0.00733038317412138,1.6884315013885498,-0.29016098380088806
1773231950516720000,3.10672021484375,-0.07024950534105301,2.431854486465454,-0.014049900695681572
1773231950532742700,3.12274267578125,-0.042760565876960754,2.7152960300445557,0.3323107063770294
1773231950548732400,3.138732421875,0.07330382615327835,2.6621506214141846,0.5021312236785889
1773231950564724700,3.154724853515625,0.14844025671482086,2.6792550086975098,0.3689626157283783
1773231950580152800,3.17015283203125,0.07635815441608429,2.7238481044769287,0.28038713335990906
1773231950596736500,3.186736572265625,-0.06230825558304787,2.9498682022094727,0.45326200127601624
1773231950612730400,3.20273046875,-0.24495697021484375,3.1306843757629395,0.6126978397369385
1773231950628720000,3.21872021484375,-0.5864306092262268,3.11785626411438,0.5424483418464661
1773231950644740400,3.234740234375,-0.9004153609275818,3.0256154537200928,0.33475416898727417
1773231950660734000,3.25073388671875,-1.189354658126831,3.0714304447174072,0.2021963894367218
1773231950676724500,3.266724365234375,-1.2400563955307007,3.192992687225342,0.31093040108680725
1773231950692716000,3.282716064453125,-1.3952162265777588,3.2479705810546875,0.2779437005519867
1773231950708737800,3.29873779296875,-1.8564194440841675,3.1367931365966797,-0.17776179313659668
1773231950724726800,3.314726806640625,-2.283414363861084,2.6920831203460693,-1.1288789510726929
1773231950740719900,3.330719970703125,-2.4911084175109863,2.1954495906829834,-1.7910568714141846
1773231950756742100,3.3467421875,-2.6193902492523193,1.8154915571212769,-2.0360138416290283
1773231950772733400,3.3627333984375,-2.726902484893799,1.8979582786560059,-1.9926424026489258
1773231950788724700,3.378724853515625,-2.9077186584472656,2.3151793479919434,-1.7959438562393188
1773231950804715300,3.39471533203125,-3.132516860961914,2.786156415939331,-1.5522085428237915
1773231950820735500,3.410735595703125,-3.467271089553833,3.235753297805786,-1.2327260971069336
1773231950836726300,3.426726318359375,-3.7232236862182617,3.428786516189575,-1.0195341110229492
1773231950852720000,3.44272021484375,-3.994447946548462,3.3603696823120117,-0.7874053120613098
1773231950868741000,3.4587412109375,-4.215580940246582,3.0805933475494385,-0.7250970602035522
1773231950884732400,3.474732421875,-4.461148738861084,2.579072952270508,-0.7648032903671265
1773231950900724000,3.490723876953125,-4.577824115753174,2.1539108753204346,-0.7959573864936829
1773231950916713500,3.50671337890625,-4.381125450134277,1.7843374013900757,-0.7470881938934326
1773231950932736800,3.52273681640625,-3.885713815689087,1.538158655166626,-0.6261368989944458
1773231950948726800,3.538726806640625,-3.1343495845794678,1.2223412990570068,-0.5821545720100403
1773231950964717800,3.5547177734375,-2.556471109390259,0.9627236127853394,-0.6249151229858398
1773231950980740900,3.570740966796875,-2.0916025638580322,0.7128797173500061,-0.6621779203414917
1773231950996732000,3.58673193359375,-1.8478673696517944,0.588263213634491,-0.6823364496231079
1773231951012724000,3.602723876953125,-1.6841554641723633,0.4288274049758911,-0.7012733221054077
1773231951028713700,3.618713623046875,-1.5424346923828125,0.2480112910270691,-0.769690215587616
1773231951044735700,3.63473583984375,-1.3897184133529663,0.00427605677396059,-0.8717046976089478
1773231951060738600,3.650738525390625,-1.2986994981765747,-0.20036379992961884,-0.9266825914382935
1773231951076718600,3.666718505859375,-1.1808024644851685,-0.2834414839744568,-0.9199630618095398
1773231951092739600,3.682739501953125,-1.0800096988677979,-0.2773328125476837,-0.8729264140129089
1773231951108729900,3.698729736328125,-0.9737191796302795,-0.2125810980796814,-0.8142833709716797
1773231951124723200,3.71472314453125,-0.9156870245933533,-0.17959438264369965,-0.7654141783714294
1773231951140711700,3.730711669921875,-0.8863654732704163,-0.18387043476104736,-0.7031059265136719
1773231951156736000,3.746736083984375,-0.8796459436416626,-0.15760323405265808,-0.5937610268592834
1773231951172727600,3.7627275390625,-0.8405506014823914,-0.08124507963657379,-0.3787364661693573
1773231951188715800,3.7787158203125,-0.7031059265136719,-0.003054326167330146,-0.16432274878025055
1773231951204739800,3.79473974609375,-0.45875978469848633,0.0006108652451075613,0.00733038317412138
1773231951220729600,3.8107294921875,-0.23518311977386475,-0.010995574295520782,0.07880161702632904
1773231951236722400,3.826722412109375,0.02687807008624077,-0.1765400618314743,0.2064724564552307
1773231951252744700,3.84274462890625,0.26022860407829285,-0.28649580478668213,0.45142942667007446
1773231951268734500,3.858734375,0.5461135506629944,-0.24862214922904968,0.9108000993728638
1773231951284725800,3.874725830078125,0.8515461683273315,-0.07147123664617538,1.2962560653686523
1773231951300715300,3.89071533203125,1.3267992734909058,0.1569923609495163,1.5583171844482422
1773231951316739600,3.906739501953125,1.8710802793502808,0.28038713335990906,1.6395623683929443
1773231951332731000,3.92273095703125,2.5503623485565186,0.3323107063770294,1.6407840251922607
1773231951348721700,3.9387216796875,3.081204414367676,0.27061331272125244,1.5778648853302002
1773231951364711700,3.954711669921875,3.545461893081665,0.02076941914856434,1.50211763381958
1773231951380733700,3.970733642578125,3.7922513484954834,-0.2932153046131134,1.4911220073699951
1773231951396723700,3.9867236328125,4.001167297363281,-0.5925393104553223,1.503339409828186
1773231951412716800,4.002716796875,4.13739013671875,-0.8307767510414124,1.5210545063018799
1773231951428737300,4.0187373046875,4.2363505363464355,-0.969443142414093,1.5253305435180664
1773231951444729600,4.0347294921875,4.245513439178467,-1.016479730606079,1.5326608419418335
1773231951460721200,4.05072119140625,4.254676342010498,-0.9816604256629944,1.5076154470443726
1773231951476741400,4.066741455078125,4.218024730682373,-0.8979719281196594,1.4477506875991821
1773231951492734200,4.082734130859375,4.090964317321777,-0.7855727076530457,1.3842206001281738
1773231951508726500,4.0987265625,3.8796050548553467,-0.6542366743087769,1.3487904071807861
1773231951524716000,4.114716064453125,3.5607335567474365,-0.4795292317867279,1.3103059530258179
1773231951540736800,4.13073681640625,3.2766811847686768,-0.33658674359321594,1.2736539840698242
1773231951556727800,4.146727783203125,2.9407052993774414,-0.2028072625398636,1.2034045457839966
1773231951572721400,4.162721435546875,2.6481008529663086,-0.1160643994808197,1.1105530261993408
1773231951588713000,4.178712890625,2.264477491378784,-0.04153883829712868,0.9737191796302795
1773231951604732200,4.194732177734375,1.909564733505249,-0.012828170321881771,0.856433093547821
1773231951620723200,4.21072314453125,1.4801265001296997,0.07391469180583954,0.7385360598564148
1773231951636715300,4.22671533203125,1.0910053253173828,0.1966986060142517,0.6524040699005127
1773231951652738600,4.242738525390625,0.6346889734268188,0.32498031854629517,0.5320636034011841
1773231951668728800,4.258728759765625,0.20891591906547546,0.4440990388393402,0.40133845806121826
1773231951684718600,4.274718505859375,-0.32131510972976685,0.5424483418464661,0.19303341209888458
1773231951700739800,4.29073974609375,-0.770301103591919,0.5968153476715088,-0.02932153269648552
1773231951716732400,4.306732421875,-1.310916781425476,0.637132465839386,-0.26022860407829285
1773231951732724700,4.322724853515625,-1.7641788721084595,0.6450737118721008,-0.38240164518356323
1773231951748715300,4.33871533203125,-2.233934164047241,0.6511823534965515,-0.46181413531303406
1773231951764737300,4.3547373046875,-2.58762526512146,0.675616979598999,-0.5351179838180542
1773231951780726500,4.3707265625,-2.9517009258270264,0.7287622094154358,-0.6627888083457947
1773231951796718800,4.38671875,-3.2308661937713623,0.7574729323387146,-0.8020660877227783
1773231951812741400,4.402741455078125,-3.494760036468506,0.7531968355178833,-0.9474520087242126
1773231951828732000,4.41873193359375,-3.621209144592285,0.7092145681381226,-1.0097602605819702
1773231951844722400,4.434722412109375,-3.6218199729919434,0.5693264007568359,-0.9896016716957092
1773231951860715500,4.450715576171875,-3.520416498184204,0.384845107793808,-0.8973610401153564
1773231951876735700,4.46673583984375,-3.36403489112854,0.1869247704744339,-0.720820963382721
1773231951892728600,4.482728515625,-3.232088088989258,0.12217304855585098,-0.5357288122177124
1773231951908719000,4.498718994140625,-3.0714304447174072,0.2076941877603531,-0.3078760802745819
1773231951924740400,4.514740234375,-2.911994695663452,0.32986724376678467,-0.16798794269561768
1773231951940730600,4.530730712890625,-2.724458932876587,0.43737950921058655,-0.1411098688840866
1773231951956721400,4.546721435546875,-2.5900685787200928,0.45631635189056396,-0.23518311977386475
1773231951972715500,4.562715576171875,-2.5088236331939697,0.4447098970413208,-0.3885102868080139
1773231951988735500,4.578735595703125,-2.535090684890747,0.4056145250797272,-0.5167919993400574
1773231952004725800,4.594725830078125,-2.576629638671875,0.35124751925468445,-0.6597344875335693
1773231952020719600,4.6107197265625,-2.585181713104248,0.30482175946235657,-0.7800748944282532
1773231952036738300,4.62673828125,-2.526538610458374,0.24556782841682434,-0.8955284357070923
1773231952052732200,4.642732177734375,-2.4465153217315674,0.19914206862449646,-0.9560040831565857
1773231952068722000,4.658721923828125,-2.3182334899902344,0.1569923609495163,-1.0042624473571777
1773231952084713700,4.674713623046875,-2.182621479034424,0.13866640627384186,-1.0378600358963013
1773231952100734700,4.690734619140625,-2.0201313495635986,0.13561208546161652,-1.0482447147369385
1773231952116725800,4.706725830078125,-1.881464958190918,0.13988813757896423,-1.0225883722305298
1773231952132720000,4.72272021484375,-1.681712031364441,0.12034045159816742,-0.9950994849205017
1773231952148739800,4.73873974609375,-1.470963478088379,0.07269296050071716,-0.9804387092590332
1773231952164729000,4.75472900390625,-1.2247848510742188,0,-0.9425650835037231
1773231952180720400,4.770720458984375,-1.0299187898635864,-0.031154127791523933,-0.8655960559844971
1773231952196713700,4.786713623046875,-0.7819074988365173,-0.05619960278272629,-0.7385360598564148
1773231952212735000,4.80273486328125,-0.5455026626586914,-0.10201449692249298,-0.6261368989944458
1773231952228727600,4.8187275390625,-0.25045475363731384,-0.1569923609495163,-0.45875978469848633
1773231952244718600,4.834718505859375,0.05314527451992035,-0.22968533635139465,-0.25534167885780334
1773231952260737300,4.8507373046875,0.45814892649650574,-0.304210901260376,0.09162978827953339
1773231952276728300,4.866728271484375,0.8637634515762329,-0.303600013256073,0.4282165467739105
1773231952292722200,4.88272216796875,1.4117095470428467,-0.2583959996700287,0.6951646208763123
1773231952308714000,4.8987138671875,1.910786509513855,-0.2742784917354584,0.7959573864936829
1773231952324734000,4.91473388671875,2.4471261501312256,-0.3090978264808655,0.8979719281196594
1773231952340726000,4.93072607421875,2.836247444152832,-0.3481931984424591,0.99876469373703
1773231952356717600,4.946717529296875,3.199712038040161,-0.41233405470848083,1.0824532508850098
1773231952372738800,4.96273876953125,3.4550538063049316,-0.48808133602142334,1.1044443845748901
1773231952388729900,4.978729736328125,3.709784746170044,-0.627358615398407,1.1093312501907349
1773231952404718800,4.99471875,3.9070940017700195,-0.7757988572120667,1.1215485334396362
1773231952420743000,5.010742919921875,4.145331382751465,-0.9101892113685608,1.1331549882888794
1773231952436734000,5.02673388671875,4.3169846534729,-0.9816604256629944,1.1832460165023804
1773231952452724000,5.042723876953125,4.425107955932617,-0.912021815776825,1.3048081398010254
1773231952468716000,5.058716064453125,4.357301712036133,-0.7678576111793518,1.4172073602676392
1773231952484736300,5.074736328125,4.206418037414551,-0.5070181488990784,1.5748106241226196
1773231952500728000,5.09072802734375,4.032932281494141,-0.323147714138031,1.6823228597640991
1773231952516721700,5.1067216796875,3.7641515731811523,-0.16004669666290283,1.7599027156829834
1773231952532712000,5.1227119140625,3.5051448345184326,-0.03787364438176155,1.8197675943374634
1773231952548734200,5.138734130859375,3.21559476852417,0.0507018156349659,1.8448129892349243
1773231952564725200,5.154725341796875,2.950479030609131,0.07513642311096191,1.785559058189392
1773231952580714800,5.17071484375,2.7562239170074463,0.06780604273080826,1.6762142181396484
1773231952596737300,5.1867373046875,2.4660630226135254,0.04948008432984352,1.5125023126602173
1773231952612730000,5.202730224609375,2.1368067264556885,0.04703662544488907,1.3732250928878784
1773231952628719900,5.218719970703125,1.6865988969802856,0.07452555745840073,1.2211196422576904
1773231952644742000,5.234741943359375,1.2669345140457153,0.1563815027475357,1.0977247953414917
1773231952660734200,5.250734130859375,0.7574729323387146,0.2681698501110077,0.9590584635734558
1773231952676723200,5.26672314453125,0.32986724376678467,0.3878994286060333,0.8210029006004333
1773231952692716300,5.28271630859375,-0.16065755486488342,0.4990769028663635,0.5845980644226074
1773231952708737000,5.298737060546875,-0.6047565937042236,0.5528330206871033,0.32498031854629517
1773231952724728000,5.31472802734375,-1.1227703094482422,0.4709770977497101,0.029932396486401558
1773231952740718000,5.330718017578125,-1.5534303188323975,0.35735616087913513,-0.1514945775270462
1773231952756739000,5.346739013671875,-2.0274617671966553,0.26450464129447937,-0.2638937830924988
1773231952772734200,5.362734130859375,-2.370157241821289,0.24373523890972137,-0.34636059403419495
1773231952788722000,5.378721923828125,-2.7067439556121826,0.24495697021484375,-0.46242499351501465
1773231952804713000,5.394712890625,-2.926044464111328,0.2064724564552307,-0.5632177591323853
1773231952820736000,5.410736083984375,-3.1227431297302246,0.11789698898792267,-0.5968153476715088
1773231952836726500,5.4267265625,-3.191159963607788,0.027488935738801956,-0.5277875661849976
1773231952852720600,5.442720703125,-3.17161226272583,-0.05803219974040985,-0.3604104816913605
1773231952868742000,5.458741943359375,-3.07692813873291,-0.0708603709936142,-0.18631389737129211
1773231952884731400,5.4747314453125,-2.959642171859741,0.015271631069481373,-0.015882495790719986
1773231952900725000,5.49072509765625,-2.9248228073120117,0.14233160018920898,0.06963863968849182
1773231952916714000,5.5067138671875,-2.8967230319976807,0.2687807083129883,0.11484266817569733
1773231952932735700,5.52273583984375,-2.8240299224853516,0.3072652220726013,0.09285151958465576
1773231952948275700,5.538275634765625,-2.7146852016448975,0.2675589919090271,0.027488935738801956
1773231952964654000,5.554654052734375,-2.546086311340332,0.13439035415649414,-0.1111774742603302
1773231952980676000,5.570676025390625,-2.4129176139831543,-0.08246681094169617,-0.3225368559360504
1773231952996667600,5.586667724609375,-2.3915374279022217,-0.1514945775270462,-0.4178318381309509
1773231953012662000,5.602662109375,-2.3915374279022217,-0.1514945775270462,-0.4178318381309509
1773231953028650500,5.618650390625,-2.3915374279022217,-0.1514945775270462,-0.4178318381309509
1773231953044672500,5.634672607421875,-2.3915374279022217,-0.1514945775270462,-0.4178318381309509
1773231953060665000,5.6506650390625,-2.3915374279022217,-0.1514945775270462,-0.4178318381309509
1773231953076653800,5.66665380859375,-2.3915374279022217,-0.1514945775270462,-0.4178318381309509
1773231953092676600,5.682676513671875,-2.3915374279022217,-0.1514945775270462,-0.4178318381309509
1773231953108668400,5.69866845703125,-2.3915374279022217,-0.1514945775270462,-0.4178318381309509
1773231953124660200,5.71466015625,-2.1374175548553467,-0.384845107793808,-0.846659243106842
1773231953140649700,5.730649658203125,-1.9828685522079468,-0.3323107063770294,-0.8100073337554932
1773231953156671500,5.74667138671875,-1.750128984451294,-0.2816088795661926,-0.7953465580940247
1773231953172664800,5.762664794921875,-1.5027284622192383,-0.22846360504627228,-0.7660250067710876
1773231953188656000,5.77865625,-1.2498302459716797,-0.1563815027475357,-0.6872233748435974
1773231953204675000,5.794675048828125,-1.0054842233657837,-0.054367005825042725,-0.607200026512146
1773231953220665600,5.81066552734375,-0.740368664264679,0.0708603709936142,-0.5442809462547302
1773231953236658000,5.826657958984375,-0.40072759985923767,0.1160643994808197,-0.44226643443107605
1773231953252650800,5.842650634765625,0.01466076634824276,0.1264491081237793,-0.21502456068992615
1773231953268671500,5.85867138671875,0.4660901725292206,0.1771509200334549,0.0910189226269722
1773231953284662500,5.87466259765625,0.978606104850769,0.29077184200286865,0.31031954288482666
1773231953300654000,5.890654052734375,1.557706356048584,0.3585779070854187,0.4147774875164032
1773231953316674800,5.9066748046875,2.1252002716064453,0.3500257730484009,0.46303585171699524
1773231953328669200,5.918669189453125,2.514932155609131,0.31154128909111023,0.49785518646240234
1773231953340661200,5.9306611328125,2.805704116821289,0.2638937830924988,0.5400048494338989
1773231953356653800,5.94665380859375,3.1111366748809814,0.1508837193250656,0.6279694437980652
1773231953372676400,5.96267626953125,3.316998243331909,0.03848451003432274,0.7226535677909851
1773231953388666600,5.97866650390625,3.4941492080688477,-0.02871066704392433,0.7898487448692322
1773231953404658000,5.994657958984375,3.72078013420105,-0.08246681094169617,0.7672467231750488
1773231953420647200,6.010647216796875,3.9480221271514893,-0.1618792861700058,0.6621779203414917
1773231953436668700,6.026668701171875,4.112344741821289,-0.2015855312347412,0.5919284224510193
1773231953452662500,6.04266259765625,4.182594299316406,-0.2015855312347412,0.6065891981124878
1773231953468653600,6.058653564453125,4.155716419219971,-0.1270599663257599,0.7098253965377808
1773231953484673000,6.074673095703125,4.034764766693115,0.06352998316287994,0.8888089060783386
1773231953500665300,6.090665283203125,3.8588356971740723,0.25473082065582275,1.0586295127868652
1773231953516655000,6.106655029296875,3.656639337539673,0.4294382631778717,1.1759155988693237
1773231953532679000,6.122678955078125,3.4324517250061035,0.5485569834709167,1.1997393369674683
1773231953548669000,6.1386689453125,3.1954360008239746,0.5998696684837341,1.150259256362915
1773231953564661000,6.154660888671875,2.9431488513946533,0.5949827432632446,1.0525208711624146
1773231953580651800,6.17065185546875,2.662761688232422,0.5607742667198181,0.9431759119033813
1773231953596672000,6.186672119140625,2.336559534072876,0.5002986192703247,0.8509352803230286
1773231953612664300,6.202664306640625,1.9547687768936157,0.4300491213798523,0.7843509912490845
1773231953628655900,6.21865576171875,1.5351043939590454,0.4086688458919525,0.7195992469787598
1773231953644676600,6.234676513671875,1.1001683473587036,0.3885102868080139,0.6432411074638367
1773231953660668200,6.250668212890625,0.6664539575576782,0.3836233615875244,0.5552765130996704
1773231953676658700,6.26665869140625,0.2321287989616394,0.38606682419776917,0.4398229718208313
1773231953692651300,6.2826513671875,-0.22846360504627228,0.3646865487098694,0.2877175211906433
1773231953708673000,6.298673095703125,-0.7379252314567566,0.33597588539123535,0.09285151958465576
1773231953720667100,6.310667236328125,-1.0897835493087769,0.323147714138031,-0.048258353024721146
1773231953732660200,6.32266015625,-1.4104878902435303,0.29077184200286865,-0.19975294172763824
1773231953748650800,6.338650634765625,-1.7507398128509521,0.21013765037059784,-0.3854559659957886
1773231953764671000,6.3546708984375,-2.021353006362915,0.08124507963657379,-0.5253441333770752
1773231953780662000,6.370662109375,-2.260812282562256,-0.054367005825042725,-0.6352998614311218
1773231953796654000,6.386654052734375,-2.484389066696167,-0.192422553896904,-0.7177666425704956
1773231953812678100,6.40267822265625,-2.6450464725494385,-0.33597588539123535,-0.7568620443344116
1773231953828665600,6.41866552734375,-2.696969985961914,-0.47219884395599365,-0.749531626701355
1773231953844658200,6.434658203125,-2.601675033569336,-0.626747727394104,-0.7318165898323059
1773231953860649500,6.4506494140625,-2.4630086421966553,-0.7843509912490845,-0.7122688889503479
1773231953876671500,6.46667138671875,-2.4025330543518066,-0.8906415104866028,-0.6786713004112244
1773231953892663600,6.48266357421875,-2.423302412033081,-0.8827002644538879,-0.5510004758834839
1773231953908653000,6.498653076171875,-2.472782611846924,-0.7507534027099609,-0.3481931984424591
1773231953924676400,6.51467626953125,-2.504547595977783,-0.5583308339118958,-0.1875356286764145
1773231953940665300,6.530665283203125,-2.4947736263275146,-0.3695734739303589,-0.15882496535778046
1773231953956656400,6.546656494140625,-2.447736978530884,-0.2217440903186798,-0.28099802136421204
1773231953972650800,6.562650634765625,-2.4324653148651123,-0.1514945775270462,-0.5149593949317932
1773231953988671700,6.578671630859375,-2.4825563430786133,-0.152105450630188,-0.7348709106445312
1773231954004662800,6.594662841796875,-2.5717427730560303,-0.1973094791173935,-0.8686503767967224
1773231954020651300,6.6106513671875,-2.6725354194641113,-0.23518311977386475,-0.9187413454055786
1773231954032678700,6.6226787109375,-2.7317893505096436,-0.25595253705978394,-0.9364564418792725
1773231954044670700,6.634670654296875,-2.769663095474243,-0.25473082065582275,-0.9553932547569275
1773231954060662000,6.650662109375,-2.7763824462890625,-0.23273965716362,-0.9834930300712585
1773231954076653600,6.666653564453125,-2.740952253341675,-0.1869247704744339,-0.9950994849205017
1773231954088677600,6.678677734375,-2.682920217514038,-0.16493362188339233,-0.9865473508834839
1773231954100668700,6.690668701171875,-2.6169466972351074,-0.14844025671482086,-0.9633345007896423
1773231954116659700,6.70665966796875,-2.4862215518951416,-0.1313360333442688,-0.8998045325279236
1773231954132652300,6.72265234375,-2.2925772666931152,-0.1014036312699318,-0.8228355050086975
1773231954148674000,6.738674072265625,-2.0470094680786133,-0.04886921867728233,-0.7709119319915771
1773231954164665600,6.75466552734375,-1.76723313331604,0.0024434609804302454,-0.7147123217582703
1773231954180654800,6.77065478515625,-1.4850133657455444,0.027488935738801956,-0.6304129362106323
1773231954196646400,6.786646484375,-1.2229522466659546,-0.006719517521560192,-0.5186246037483215
1773231954212670700,6.802670654296875,-0.9761626720428467,-0.010995574295520782,-0.3982841372489929
1773231954228660500,6.818660400390625,-0.6811147332191467,-0.013439035043120384,-0.31031954288482666
1773231954244651000,6.834651123046875,-0.29077184200286865,-0.09162978827953339,-0.19486601650714874
1773231954260672300,6.85067236328125,0.16310101747512817,-0.17837265133857727,0.06841690838336945
1773231954276664800,6.866664794921875,0.6377432942390442,-0.1569923609495163,0.42699480056762695
1773231954292656600,6.88265673828125,1.1545352935791016,0.045204028487205505,0.6957755088806152
1773231954308647000,6.89864697265625,1.7037031650543213,0.303600013256073,0.7843509912490845
1773231954324668400,6.91466845703125,2.219273328781128,0.5192354321479797,0.8118399381637573
1773231954340658400,6.930658447265625,2.6340508460998535,0.6884451508522034,0.8491026759147644
1773231954356650800,6.946650634765625,2.956587791442871,0.7739662528038025,0.8759807348251343
1773231954372673800,6.962673828125,3.2064316272735596,0.7147123217582703,0.8527678847312927
1773231954388662300,6.978662353515625,3.406184673309326,0.5662720799446106,0.8130616545677185
1773231954404656000,6.99465625,3.5882225036621094,0.38606682419776917,0.7513642311096191
1773231954420646400,7.010646484375,3.805079698562622,0.17043140530586243,0.6261368989944458
1773231954436667100,7.026667236328125,4.020715236663818,-0.04764748737215996,0.47342056035995483
1773231954452659500,7.042659423828125,4.180761814117432,-0.16798794269561768,0.36102136969566345
1773231954468651300,7.0586513671875,4.1636576652526855,-0.24923302233219147,0.29565876722335815
1773231954484671700,7.074671630859375,4.087299346923828,-0.2125810980796814,0.3646865487098694
1773231954500662800,7.090662841796875,3.952298164367676,-0.1411098688840866,0.4764748811721802
1773231954516652500,7.106652587890625,3.7953057289123535,-0.03237585723400116,0.5687155723571777
1773231954532646700,7.122646728515625,3.5912768840789795,0.09651670604944229,0.6572909951210022
1773231954548667400,7.13866748046875,3.3518176078796387,0.182648703455925,0.7422012686729431
1773231954564657400,7.154657470703125,3.0885345935821533,0.26572638750076294,0.8020660877227783
1773231954580648000,7.17064794921875,2.8264734745025635,0.3323107063770294,0.8100073337554932
1773231954596669200,7.186669189453125,2.554027557373047,0.35124751925468445,0.7641924023628235
1773231954608662500,7.19866259765625,2.3408355712890625,0.3384193480014801,0.7098253965377808
1773231954620657200,7.2106572265625,2.0751092433929443,0.30970868468284607,0.6438519954681396
1773231954636648700,7.226648681640625,1.7134770154953003,0.2919935882091522,0.5809328556060791
1773231954652672500,7.242672607421875,1.3426817655563354,0.2638937830924988,0.5393940210342407
1773231954668661800,7.258661865234375,0.9651671051979065,0.23335053026676178,0.4948008358478546
1773231954684654000,7.274654052734375,0.5491678714752197,0.2431243658065796,0.4196644127368927
1773231954700674300,7.29067431640625,0.05192354694008827,0.2822197377681732,0.2730567753314972
1773231954716664600,7.30666455078125,-0.5229006409645081,0.31642818450927734,0.0659734457731247
1773231954732658400,7.322658447265625,-1.0806206464767456,0.29626965522766113,-0.11362093687057495
1773231954748648000,7.33864794921875,-1.5851953029632568,0.2125810980796814,-0.23884831368923187
1773231954764668700,7.354668701171875,-1.9743164777755737,0.07269296050071716,-0.28527405858039856
1773231954780660200,7.37066015625,-2.2595906257629395,-0.06902777403593063,-0.27061331272125244
1773231954796652500,7.386652587890625,-2.440406560897827,-0.16798794269561768,-0.1966986060142517
1773231954812674000,7.402674072265625,-2.462397813796997,-0.2791654169559479,-0.12034045159816742
1773231954828665000,7.4186650390625,-2.403754711151123,-0.3585779070854187,-0.07941248267889023
1773231954844656600,7.43465673828125,-2.356718063354492,-0.41233405470848083,-0.0659734457731247
1773231954860646100,7.450646240234375,-2.3628268241882324,-0.4538728892803192,-0.07269296050071716
1773231954876669400,7.46666943359375,-2.4129176139831543,-0.47769662737846375,-0.06658431142568588
1773231954892661500,7.48266162109375,-2.5082128047943115,-0.46853363513946533,-0.059864792972803116
1773231954908652300,7.49865234375,-2.607172966003418,-0.42088615894317627,-0.045204028487205505
1773231954924672300,7.51467236328125,-2.6279423236846924,-0.34697145223617554,-0.02687807008624077
1773231954936666600,7.52666650390625,-2.563190460205078,-0.29077184200286865,-0.022602014243602753
1773231954948658200,7.538658203125,-2.4605650901794434,-0.24556782841682434,-0.05864306539297104
1773231954960654000,7.550654052734375,-2.383596181869507,-0.22052235901355743,-0.13805554807186127
1773231954972647700,7.562647705078125,-2.349998712539673,-0.20525072515010834,-0.2272418737411499
1773231954988668400,7.57866845703125,-2.367713689804077,-0.20891591906547546,-0.35185837745666504
1773231955004658700,7.59465869140625,-2.4801127910614014,-0.23151792585849762,-0.44715335965156555
1773231955020651000,7.610651123046875,-2.6505444049835205,-0.24068090319633484,-0.5247332453727722
1773231955036671000,7.6266708984375,-2.8264734745025635,-0.22907446324825287,-0.5870414972305298
1773231955052664600,7.64266455078125,-2.940094470977783,-0.16920967400074005,-0.6328563690185547
1773231955068653800,7.65865380859375,-2.964529037475586,-0.09896016865968704,-0.6432411074638367
1773231955084645600,7.674645751953125,-2.900999069213867,-0.02932153269648552,-0.6194173693656921
1773231955100667600,7.690667724609375,-2.783712863922119,-0.0012217304902151227,-0.5632177591323853
1773231955116657700,7.70665771484375,-2.6560420989990234,-0.013439035043120384,-0.5021312236785889
1773231955132652000,7.722652099609375,-2.5051584243774414,-0.03237585723400116,-0.47830748558044434
1773231955148672800,7.7386728515625,-2.2742512226104736,-0.05253441259264946,-0.4960225820541382
1773231955164661500,7.75466162109375,-1.966986060142517,-0.07513642311096191,-0.49785518646240234
1773231955180652800,7.77065283203125,-1.6450600624084473,-0.08674286305904388,-0.4245513379573822
1773231955196645400,7.786645263671875,-1.3200798034667969,-0.10445795953273773,-0.28527405858039856
1773231955212667100,7.802667236328125,-1.0140362977981567,-0.06108652427792549,-0.12034045159816742
1773231955228658200,7.818658203125,-0.6872233748435974,0.03726277872920036,0.005497787147760391
1773231955244649500,7.8346494140625,-0.2974913716316223,0.0806342139840126,0.11239920556545258
1773231955260669700,7.850669677734375,0.1466076523065567,0.13866640627384186,0.32131510972976685
1773231955276662800,7.866662841796875,0.6316346526145935,0.2632829248905182,0.5589417219161987
1773231955292654600,7.882654541015625,1.1679743528366089,0.44165557622909546,0.6108652353286743
1773231955308642300,7.898642333984375,1.7434093952178955,0.5473352670669556,0.47708576917648315
1773231955324666000,7.914666015625,2.3023509979248047,0.5937610268592834,0.31581732630729675
1773231955340657200,7.9306572265625,2.7928760051727295,0.5699372887611389,0.16737708449363708
1773231955356647200,7.946647216796875,3.1722233295440674,0.4544837474822998,0.04337143152952194
1773231955372669000,7.9626689453125,3.4324517250061035,0.2480112910270691,-0.028099801391363144
1773231955388661800,7.978661865234375,3.608991861343384,0.013439035043120384,-0.042760565876960754
1773231955404652800,7.99465283203125,3.734830141067505,-0.1466076523065567,-0.005497787147760391
1773231955420674000,8.010674072265624,3.844175100326538,-0.2321287989616394,0.0507018156349659
1773231955436663800,8.026663818359374,3.91625714302063,-0.2571742534637451,0.12522737681865692
1773231955448658700,8.03865869140625,3.947411298751831,-0.23090706765651703,0.22418753802776337
1773231955460653000,8.050653076171875,3.9541306495666504,-0.15515977144241333,0.3597996234893799
1773231955476674000,8.066674072265625,3.949854612350464,-0.0024434609804302454,0.5467243790626526
1773231955488667000,8.0786669921875,3.905261516571045,0.1459967941045761,0.6585127115249634
1773231955500660700,8.09066064453125,3.841120719909668,0.2932153046131134,0.7428121566772461
1773231955516651500,8.106651611328125,3.7311649322509766,0.45631635189056396,0.7922922372817993
1773231955532673800,8.122673828125,3.572950839996338,0.5479460954666138,0.7971791625022888
1773231955548663600,8.13866357421875,3.3701436519622803,0.5687155723571777,0.778853178024292
1773231955564654000,8.154654052734376,3.126408338546753,0.5375614166259766,0.7531968355178833
1773231955580646400,8.170646484375,2.84968638420105,0.5021312236785889,0.7263187766075134
1773231955596667600,8.186667724609375,2.563190460205078,0.46303585171699524,0.6701191663742065
1773231955612659700,8.20265966796875,2.2314908504486084,0.4282165467739105,0.5876523852348328
1773231955628651000,8.218651123046875,1.8784105777740479,0.40622538328170776,0.4960225820541382
1773231955644672300,8.23467236328125,1.513113260269165,0.3799581825733185,0.41172316670417786
1773231955660663800,8.250663818359374,1.1252137422561646,0.33658674359321594,0.33108896017074585
1773231955676654000,8.266654052734374,0.7147123217582703,0.3127630054950714,0.2577851414680481
1773231955692644900,8.282644775390626,0.2736676335334778,0.2669481039047241,0.13316862285137177
1773231955708668400,8.29866845703125,-0.22357667982578278,0.16737708449363708,-0.07330382615327835
1773231955724657000,8.314656982421875,-0.7299839854240417,-0.006719517521560192,-0.3023782968521118
1773231955740650500,8.330650390625,-1.2125675678253174,-0.2571742534637451,-0.4642575979232788
1773231955756671000,8.3466708984375,-1.655444860458374,-0.4447098970413208,-0.5204572081565857
1773231955772663600,8.36266357421875,-2.0286834239959717,-0.5595525503158569,-0.5436700582504272
1773231955788653000,8.378653076171876,-2.3664920330047607,-0.607810914516449,-0.5601634383201599
1773231955804646100,8.394646240234374,-2.610227108001709,-0.617584764957428,-0.5601634383201599
1773231955820668000,8.41066796875,-2.679865837097168,-0.5962044596672058,-0.5467243790626526
1773231955836657000,8.426656982421875,-2.6206119060516357,-0.5564982295036316,-0.5314527750015259
1773231955852649200,8.442649169921875,-2.523484230041504,-0.5589417219161987,-0.5418374538421631
1773231955868669700,8.458669677734376,-2.4856107234954834,-0.5797111392021179,-0.5833762884140015
1773231955884662300,8.474662353515624,-2.5118777751922607,-0.5833762884140015,-0.6029239892959595
1773231955900652300,8.49065234375,-2.595566511154175,-0.5320636034011841,-0.5693264007568359
1773231955916644000,8.50664404296875,-2.6652050018310547,-0.37629300355911255,-0.4899139404296875
1773231955932668000,8.52266796875,-2.643824815750122,-0.2168571650981903,-0.403781920671463
1773231955948657700,8.53865771484375,-2.543031930923462,-0.10995574295520782,-0.3597996234893799
1773231955964648400,8.5546484375,-2.39825701713562,-0.06536258012056351,-0.3701843321323395
1773231955980668700,8.570668701171876,-2.2962424755096436,-0.08124507963657379,-0.44593164324760437
1773231955996661800,8.586661865234374,-2.2797491550445557,-0.09040805697441101,-0.5357288122177124
1773231956012654000,8.602654052734374,-2.3267858028411865,-0.1362229436635971,-0.5864306092262268
1773231956028643800,8.618643798828124,-2.3884830474853516,-0.18325957655906677,-0.5968153476715088
1773231956044664300,8.634664306640625,-2.422691583633423,-0.19303341209888458,-0.5626068711280823
1773231956060656000,8.65065625,-2.4135286808013916,-0.1612684279680252,-0.4990769028663635
1773231956072650800,8.662650634765624,-2.3829853534698486,-0.1111774742603302,-0.4495968222618103
1773231956084651500,8.674651611328125,-2.3597724437713623,-0.05864306539297104,-0.3982841372489929
1773231956100664000,8.6906640625,-2.3188445568084717,-0.012217304669320583,-0.30543261766433716
1773231956116657000,8.706656982421874,-2.2821924686431885,0.0024434609804302454,-0.22968533635139465
1773231956132649000,8.72264892578125,-2.216219186782837,0.03726277872920036,-0.18081611394882202
1773231956148670700,8.738670654296875,-2.1172590255737305,0.09834930300712585,-0.17837265133857727
1773231956164660700,8.75466064453125,-1.9804251194000244,0.1612684279680252,-0.22113321721553802
1773231956180651000,8.770651123046875,-1.804495930671692,0.21624629199504852,-0.2620611786842346
1773231956196642600,8.786642578125,-1.5827518701553345,0.2370157092809677,-0.2785545587539673
1773231956212665000,8.8026650390625,-1.320690631866455,0.22418753802776337,-0.2987131178379059
1773231956228656000,8.81865625,-1.0067058801651,0.24190263450145721,-0.3536909818649292
1773231956244647400,8.8346474609375,-0.6114761233329773,0.17531833052635193,-0.4300491213798523
1773231956260666600,8.85066650390625,-0.14844025671482086,0.036651913076639175,-0.40256020426750183
1773231956276660000,8.866659912109375,0.3182607889175415,-0.0861319974064827,-0.17470745742321014
1773231956292651500,8.882651611328125,0.759305477142334,-0.06414084881544113,0.11239920556545258
1773231956308643300,8.898643310546875,1.2528846263885498,0.05925392732024193,0.29504790902137756
1773231956324664000,8.9146640625,1.7806721925735474,0.2321287989616394,0.39217549562454224
1773231956340654600,8.930654541015626,2.2907447814941406,0.4196644127368927,0.46303585171699524
1773231956356644600,8.94664453125,2.7128524780273438,0.5852088928222656,0.513737678527832
1773231956372668700,8.962668701171875,3.009122133255005,0.6805039048194885,0.5155702829360962
1773231956388658200,8.978658203125,3.2223141193389893,0.6340781450271606,0.45142942667007446
1773231956404648700,8.994648681640625,3.386636972427368,0.4789183437824249,0.3579670190811157
1773231956420641500,9.0106416015625,3.533855438232422,0.27550023794174194,0.26633724570274353
1773231956436660700,9.02666064453125,3.701843500137329,0.05864306539297104,0.16493362188339233
1773231956452655000,9.042655029296874,3.833179473876953,-0.14538592100143433,0.10201449692249298
1773231956468644000,9.05864404296875,3.9095375537872314,-0.2590068578720093,0.13927727937698364
1773231956484665900,9.074665771484375,3.9321396350860596,-0.23090706765651703,0.2779437005519867
1773231956500659200,9.0906591796875,3.883270263671875,-0.08857546001672745,0.45753806829452515
1773231956516648700,9.106648681640625,3.802025318145752,0.08552113175392151,0.6426302194595337
1773231956532672000,9.122672119140624,3.6725218296051025,0.24007004499435425,0.7635815739631653
1773231956548662300,9.138662353515626,3.5069773197174072,0.3286454975605011,0.8051204085350037
1773231956564652000,9.154652099609375,3.3072245121002197,0.3585779070854187,0.7831292152404785
1773231956580643800,9.170643798828126,3.059213161468506,0.33536502718925476,0.7385360598564148
1773231956596664800,9.186664794921874,2.785545587539673,0.2883284091949463,0.6878342628479004
1773231956612658400,9.202658447265625,2.490497589111328,0.23640485107898712,0.6377432942390442
1773231956628647200,9.218647216796874,2.1795670986175537,0.18936823308467865,0.5791002511978149
1773231956644670700,9.234670654296876,1.8429805040359497,0.18936823308467865,0.4893030524253845
1773231956660659700,9.25065966796875,1.5027284622192383,0.19792033731937408,0.3878994286060333
1773231956676652300,9.26665234375,1.1337659358978271,0.21380282938480377,0.2974913716316223
1773231956692645000,9.28264501953125,0.7232644557952881,0.22418753802776337,0.2021963894367218
1773231956708663800,9.298663818359374,0.26572638750076294,0.2168571650981903,0.08552113175392151
1773231956724655600,9.314655517578124,-0.22846360504627228,0.20402899384498596,-0.054367005825042725
1773231956740646700,9.330646728515624,-0.7043276429176331,0.16982053220272064,-0.19608774781227112
1773231956756669200,9.346669189453126,-1.1087204217910767,0.07757988572120667,-0.29138273000717163
1773231956772661200,9.3626611328125,-1.4966198205947876,-0.01710422709584236,-0.33597588539123535
1773231956788653600,9.378653564453124,-1.845423936843872,-0.10262536257505417,-0.3695734739303589
1773231956804641500,9.3946416015625,-2.1319196224212646,-0.12461651116609573,-0.37201693654060364
1773231956820664800,9.410664794921875,-2.3127357959747314,-0.12889257073402405,-0.36529740691185
1773231956836656000,9.42665625,-2.4098634719848633,-0.1612684279680252,-0.3793473243713379
1773231956852648000,9.44264794921875,-2.450791358947754,-0.2119702398777008,-0.4178318381309509
1773231956868667100,9.458667236328125,-2.473393440246582,-0.30482175946235657,-0.48808133602142334
1773231956884658700,9.47465869140625,-2.510045289993286,-0.423329621553421,-0.5644394755363464
1773231956900649200,9.490649169921875,-2.593733787536621,-0.5271766781806946,-0.6206390857696533
1773231956916642600,9.506642578125,-2.705522060394287,-0.5467243790626526,-0.6163630485534668
1773231956932663600,9.52266357421875,-2.7965409755706787,-0.4990769028663635,-0.5729916095733643
1773231956948655600,9.538655517578125,-2.819143056869507,-0.3952298164367676,-0.5070181488990784
1773231956964646100,9.554646240234375,-2.7733283042907715,-0.2883284091949463,-0.46303585171699524
1773231956980666400,9.570666259765625,-2.7067439556121826,-0.19364428520202637,-0.47280970215797424
1773231956996660000,9.586659912109376,-2.6810874938964844,-0.1014036312699318,-0.5119050741195679
1773231957012650500,9.602650390625,-2.7171285152435303,-0.06108652427792549,-0.5497786998748779
1773231957024644600,9.61464453125,-2.783102035522461,-0.06230825558304787,-0.5723807215690613
1773231957036666600,9.62666650390625,-2.844188690185547,-0.06414084881544113,-0.5949827432632446
1773231957052660500,9.642660400390625,-2.8820621967315674,-0.08124507963657379,-0.6389650702476501
1773231957068650000,9.65864990234375,-2.8600711822509766,-0.09040805697441101,-0.6884451508522034
1773231957084641800,9.674641845703125,-2.792264938354492,-0.09407325088977814,-0.7367035150527954
1773231957100662300,9.690662353515625,-2.6816983222961426,-0.11667526513338089,-0.7867944240570068
1773231957116653300,9.7066533203125,-2.554027557373047,-0.17592918872833252,-0.8118399381637573
1773231957132644600,9.72264453125,-2.411695957183838,-0.2431243658065796,-0.8093964457511902
1773231957148667000,9.7386669921875,-2.2632558345794678,-0.26145032048225403,-0.7867944240570068
1773231957164659500,9.754659423828125,-2.073887586593628,-0.2535090744495392,-0.7629706859588623
1773231957180647700,9.770647705078124,-1.870469331741333,-0.20402899384498596,-0.6982190012931824
1773231957196638700,9.786638671875,-1.6633861064910889,-0.1215621829032898,-0.5815436840057373
1773231957212662300,9.802662353515625,-1.4672982692718506,-0.03787364438176155,-0.43249258399009705
1773231957228651500,9.818651611328125,-1.2889256477355957,0.10812314599752426,-0.27611109614372253
1773231957244643000,9.83464306640625,-1.0531316995620728,0.26022860407829285,-0.17409659922122955
1773231957260666600,9.85066650390625,-0.7629706859588623,0.39156460762023926,-0.054367005825042725
1773231957276658700,9.86665869140625,-0.3995058834552765,0.513737678527832,0.21074850857257843
1773231957292648000,9.88264794921875,0.09651670604944229,0.694553792476654,0.5314527750015259
1773231957308638700,9.898638671875,0.788016140460968,0.8765916228294373,0.6939429044723511
1773231957324661500,9.91466162109375,1.5754214525222778,0.9236282706260681,0.6866125464439392
1773231957340652000,9.930652099609375,2.285857677459717,0.8778133392333984,0.6194173693656921
1773231957356643600,9.9466435546875,2.8154778480529785,0.7397578358650208,0.6200281977653503
1773231957372665000,9.9626650390625,3.1752774715423584,0.5455026626586914,0.6688974499702454
1773231957388654600,9.978654541015626,3.4232888221740723,0.3323107063770294,0.6933320760726929
1773231957404646400,9.994646484375,3.646254539489746,0.12400564551353455,0.6737843751907349
1773231957420637400,10.010637451171876,3.8979310989379883,-0.04153883829712868,0.6047565937042236
1773231957436660000,10.026659912109375,4.200920104980469,-0.18936823308467865,0.45753806829452515
1773231957452653000,10.042653076171876,4.497189998626709,-0.30054569244384766,0.3286454975605011
1773231957468641000,10.05864111328125,4.625471591949463,-0.3219259977340698,0.2590068578720093
1773231957484664600,10.07466455078125,4.546669960021973,-0.2974913716316223,0.33169981837272644
1773231957500654600,10.090654541015626,4.42755126953125,-0.1514945775270462,0.5125159621238708
1773231957516648000,10.10664794921875,4.247345924377441,0.051312681287527084,0.6976081132888794
1773231957532640000,10.122639892578125,4.024380207061768,0.2376265823841095,0.8478809595108032
1773231957548658700,10.13865869140625,3.7861428260803223,0.37140607833862305,0.9089674949645996
1773231957564652000,10.154652099609375,3.5472943782806396,0.43188172578811646,0.8808676600456238
1773231957580642600,10.170642578125,3.285844087600708,0.4300491213798523,0.8063421249389648
1773231957596664000,10.1866640625,3.003624439239502,0.4050036668777466,0.720820963382721
1773231957612656400,10.202656494140625,2.6920831203460693,0.3695734739303589,0.6511823534965515
1773231957624650200,10.214650146484376,2.4581217765808105,0.34636059403419495,0.6096435189247131
1773231957636641300,10.226641357421874,2.174680233001709,0.33475416898727417,0.5638286471366882
1773231957652664300,10.242664306640625,1.7886134386062622,0.32559117674827576,0.5015203952789307
1773231957668654600,10.258654541015625,1.386053204536438,0.2919935882091522,0.42271876335144043
1773231957684646000,10.27464599609375,0.9260717034339905,0.24923302233219147,0.3274237811565399
1773231957700666400,10.290666259765626,0.4239404797554016,0.18570303916931152,0.2070833146572113
1773231957716660000,10.306659912109374,-0.08735372871160507,0.06963863968849182,0.01466076634824276
1773231957732649200,10.322649169921876,-0.5546656250953674,-0.04703662544488907,-0.2278527319431305
1773231957748641300,10.338641357421874,-0.9871582388877869,-0.1771509200334549,-0.43188172578811646
1773231957764663000,10.3546630859375,-1.3854423761367798,-0.2889392673969269,-0.5393940210342407
1773231957780653800,10.37065380859375,-1.788002610206604,-0.35185837745666504,-0.588874101638794
1773231957796643800,10.386643798828125,-2.1514673233032227,-0.3842342495918274,-0.6261368989944458
1773231957812668400,10.40266845703125,-2.4678955078125,-0.36224308609962463,-0.6664539575576782
1773231957828656600,10.41865673828125,-2.662761688232422,-0.34574973583221436,-0.7079927921295166
1773231957844649000,10.43464892578125,-2.7507262229919434,-0.3488040566444397,-0.7018841505050659
1773231957860641000,10.45064111328125,-2.7372870445251465,-0.37751471996307373,-0.6444628238677979
1773231957876661500,10.46666162109375,-2.6835310459136963,-0.3982841372489929,-0.5516113042831421
1773231957892653800,10.48265380859375,-2.66031813621521,-0.3738495409488678,-0.45875978469848633
1773231957908644000,10.49864404296875,-2.700024366378784,-0.31154128909111023,-0.3836233615875244
1773231957924665000,10.5146650390625,-2.7794368267059326,-0.1973094791173935,-0.3225368559360504
1773231957940657200,10.5306572265625,-2.8649580478668213,-0.08429940044879913,-0.2736676335334778
1773231957956647200,10.546647216796876,-2.8802297115325928,-0.012828170321881771,-0.2541199326515198
1773231957972641000,10.56264111328125,-2.819753885269165,0.036651913076639175,-0.2785545587539673
1773231957988659700,10.57865966796875,-2.7293457984924316,0.02626720629632473,-0.37201693654060364
1773231958004650800,10.594650634765625,-2.6707029342651367,-0.0507018156349659,-0.5534439086914062
1773231958020643000,10.61064306640625,-2.7006351947784424,-0.12095131725072861,-0.7232644557952881
1773231958036666400,10.626666259765624,-2.76111102104187,-0.1820378452539444,-0.8069530129432678
1773231958052655900,10.64265576171875,-2.7873780727386475,-0.21807889640331268,-0.8191702961921692
1773231958068646000,10.65864599609375,-2.744006633758545,-0.19914206862449646,-0.788627028465271
1773231958084637700,10.6746376953125,-2.643824815750122,-0.12400564551353455,-0.7605272531509399
1773231958100659000,10.690658935546875,-2.5216517448425293,-0.06902777403593063,-0.7635815739631653
1773231958116651500,10.706651611328125,-2.370157241821289,-0.06352998316287994,-0.7641924023628235
1773231958132644400,10.722644287109375,-2.2040019035339355,-0.08185594528913498,-0.7678576111793518
1773231958148664300,10.738664306640626,-2.0323486328125,-0.12339477986097336,-0.788627028465271
1773231958164655900,10.75465576171875,-1.86191725730896,-0.16493362188339233,-0.8020660877227783
1773231958180645400,10.770645263671875,-1.6578882932662964,-0.17287486791610718,-0.7770205736160278
1773231958196636400,10.786636474609375,-1.434922456741333,-0.15821409225463867,-0.6957755088806152
1773231958212661500,10.80266162109375,-1.1899654865264893,-0.1508837193250656,-0.5809328556060791
1773231958228652000,10.818652099609375,-0.9523389339447021,-0.10445795953273773,-0.4789183437824249
1773231958244642800,10.834642822265625,-0.694553792476654,-0.01038470957428217,-0.3933972120285034
1773231958260663800,10.850663818359376,-0.3903428912162781,0.039095375686883926,-0.28588494658470154
1773231958276655600,10.866655517578126,-0.06352998316287994,0.11484266817569733,-0.06291911751031876
1773231958292646100,10.882646240234376,0.342695415019989,0.25961771607398987,0.22846360504627228
1773231958308668000,10.89866796875,0.8881980776786804,0.45814892649650574,0.40133845806121826
1773231958324658700,10.91465869140625,1.541213035583496,0.5968153476715088,0.41661009192466736
1773231958340648200,10.930648193359374,2.1642956733703613,0.6346889734268188,0.3738495409488678
1773231958356639500,10.946639404296874,2.6792550086975098,0.5674937963485718,0.33597588539123535
1773231958372663800,10.962663818359376,3.028669834136963,0.42210787534713745,0.3689626157283783
1773231958388654300,10.978654296875,3.2724051475524902,0.23518311977386475,0.4495968222618103
1773231958404645600,10.994645751953126,3.4379496574401855,0.06230825558304787,0.5442809462547302
1773231958420666000,11.010666015625,3.607159376144409,-0.03176499158143997,0.6243042945861816
1773231958436659200,11.0266591796875,3.754377841949463,-0.07635815441608429,0.6688974499702454
1773231958452649500,11.0426494140625,3.8734965324401855,-0.06352998316287994,0.7428121566772461
1773231958468639200,11.05863916015625,3.958406686782837,0.03176499158143997,0.8674286603927612
1773231958484661800,11.074661865234376,3.9742891788482666,0.20097467303276062,1.0256427526474
1773231958500653300,11.0906533203125,3.922976493835449,0.4001167416572571,1.1508700847625732
1773231958516644600,11.10664453125,3.809966564178467,0.5742133259773254,1.228450059890747
1773231958532668200,11.122668212890625,3.6548068523406982,0.6695083379745483,1.254717230796814
1773231958548657700,11.13865771484375,3.4910948276519775,0.7000515460968018,1.2272282838821411
1773231958564648200,11.154648193359375,3.3237178325653076,0.6682865619659424,1.129489779472351
1773231958580638700,11.170638671875,3.1471776962280273,0.5913175344467163,0.988990843296051
1773231958596661000,11.186660888671875,2.9358184337615967,0.48258355259895325,0.8356636762619019
1773231958612653300,11.2026533203125,2.6816983222961426,0.3646865487098694,0.684779942035675
1773231958628643000,11.21864306640625,2.381152629852295,0.252287358045578,0.5461135506629944
1773231958644665000,11.2346650390625,2.02929425239563,0.182648703455925,0.42088615894317627
1773231958660656000,11.25065625,1.660942554473877,0.17898350954055786,0.2993239760398865
1773231958676646100,11.266646240234374,1.282817006111145,0.2125810980796814,0.152105450630188
1773231958692640300,11.28264013671875,0.8943067193031311,0.24678955972194672,-0.013439035043120384
1773231958708660700,11.29866064453125,0.49724429845809937,0.2541199326515198,-0.17104226350784302
1773231958724651300,11.3146513671875,0.059864792972803116,0.19547687470912933,-0.2877175211906433
1773231958740642800,11.330642822265625,-0.39156460762023926,0.08796459436416626,-0.3237585723400116
1773231958756664800,11.346664794921875,-0.7745771408081055,-0.039706241339445114,-0.27061331272125244
1773231958772655000,11.362655029296874,-1.1074986457824707,-0.13255776464939117,-0.192422553896904
1773231958788647400,11.3786474609375,-1.4098769426345825,-0.16737708449363708,-0.14049901068210602
1773231958804637000,11.394636962890624,-1.6786576509475708,-0.1820378452539444,-0.13439035415649414
1773231958820660200,11.41066015625,-1.9028452634811401,-0.1716531366109848,-0.11850785464048386
1773231958836649700,11.426649658203125,-2.0427334308624268,-0.17837265133857727,-0.08368854224681854
1773231958852642000,11.44264208984375,-2.1087067127227783,-0.17043140530586243,-0.02626720629632473
1773231958868662800,11.458662841796874,-2.1282544136047363,-0.1765400618314743,0.012217304669320583
1773231958884655000,11.474655029296875,-2.1539108753204346,-0.2431243658065796,-0.0012217304902151227
1773231958900646000,11.49064599609375,-2.2375993728637695,-0.35674530267715454,-0.07635815441608429
1773231958916638500,11.506638427734375,-2.3939809799194336,-0.4605923891067505,-0.1722639948129654
1773231958932660500,11.522660400390626,-2.5497515201568604,-0.5082398653030396,-0.20891591906547546
1773231958948651300,11.5386513671875,-2.6285531520843506,-0.5057964324951172,-0.192422553896904
1773231958964641000,11.55464111328125,-2.612670660018921,-0.45326200127601624,-0.14782938361167908
1773231958980663600,11.57066357421875,-2.5411994457244873,-0.4043927788734436,-0.14049901068210602
1773231958996654000,11.586654052734374,-2.4556782245635986,-0.36590829491615295,-0.2021963894367218
1773231959012644900,11.602644775390624,-2.4440717697143555,-0.34636059403419495,-0.2828305959701538
1773231959028635400,11.618635498046874,-2.5057692527770996,-0.33536502718925476,-0.3604104816913605
1773231959044731000,11.63473095703125,-2.618168354034424,-0.294437050819397,-0.4300491213798523
1773231959060723000,11.650722900390624,-2.7152960300445557,-0.2541199326515198,-0.504574716091156
1773231959076715000,11.666715087890625,-2.7708847522735596,-0.2125810980796814,-0.5497786998748779
1773231959092737000,11.682737060546875,-2.7488934993743896,-0.1411098688840866,-0.5448917746543884
1773231959104730400,11.69473046875,-2.702467918395996,-0.1007927656173706,-0.5192354321479797
1773231959116723700,11.7067236328125,-2.6481008529663086,-0.07269296050071716,-0.48869219422340393
1773231959132714500,11.722714599609375,-2.5583035945892334,-0.04703662544488907,-0.45326200127601624
1773231959148735500,11.738735595703124,-2.4440717697143555,-0.02076941914856434,-0.4550946056842804
1773231959164728000,11.75472802734375,-2.3047945499420166,0.036651913076639175,-0.475253164768219
1773231959176722400,11.766722412109376,-2.188119411468506,0.08735372871160507,-0.47342056035995483
1773231959192713000,11.782712890625,-2.0036380290985107,0.1319468915462494,-0.4447098970413208
1773231959204736000,11.794736083984375,-1.814269781112671,0.17043140530586243,-0.4031710624694824
1773231959220727600,11.8107275390625,-1.5241087675094604,0.2070833146572113,-0.3640756905078888
1773231959236719000,11.826718994140625,-1.1887437105178833,0.25473082065582275,-0.38728857040405273
1773231959252741600,11.84274169921875,-0.79840087890625,0.23273965716362,-0.44287729263305664
1773231959268731400,11.8587314453125,-0.39156460762023926,0.12034045159816742,-0.40744712948799133
1773231959284723200,11.87472314453125,0.015271631069481373,0.006719517521560192,-0.16737708449363708
1773231959300713000,11.890712890625,0.4434881806373596,0.04153883829712868,0.15760323405265808
1773231959316736500,11.906736572265626,0.960280179977417,0.23273965716362,0.3799581825733185
1773231959332727800,11.922727783203126,1.5497651100158691,0.45692721009254456,0.46547931432724
1773231959348718300,11.93871826171875,2.109928607940674,0.6762278079986572,0.5094616413116455
1773231959364708400,11.954708251953125,2.56563401222229,0.808174729347229,0.5681046843528748
1773231959380729300,11.970729248046876,2.8460211753845215,0.8509352803230286,0.6151412725448608
1773231959396721400,11.986721435546874,3.0250046253204346,0.7672467231750488,0.6108652353286743
1773231959412714000,12.0027138671875,3.1612277030944824,0.6139195561408997,0.5864306092262268
1773231959428736300,12.018736328125,3.3102786540985107,0.44593164324760437,0.543059229850769
1773231959444725000,12.03472509765625,3.511864185333252,0.29138273000717163,0.43615779280662537
1773231959460716500,12.050716552734375,3.7055084705352783,0.1459967941045761,0.30543261766433716
1773231959476740600,12.06674072265625,3.8447859287261963,0.0555887371301651,0.2168571650981903
1773231959492732000,12.08273193359375,3.9193115234375,0.04703662544488907,0.2070833146572113
1773231959508723500,12.098723388671875,3.952298164367676,0.09896016865968704,0.28955012559890747
1773231959524713200,12.114713134765625,3.9370265007019043,0.21135938167572021,0.3982841372489929
1773231959540734200,12.130734130859375,3.9095375537872314,0.34513887763023376,0.46792277693748474
1773231959556726500,12.1467265625,3.8453967571258545,0.42149701714515686,0.4905247986316681
1773231959572715300,12.16271533203125,3.698789119720459,0.43676865100860596,0.47708576917648315
1773231959588707000,12.17870703125,3.469714641571045,0.42577308416366577,0.4813618063926697
1773231959604728300,12.194728271484376,3.182607889175415,0.4398229718208313,0.5100724697113037
1773231959620722200,12.21072216796875,2.839301586151123,0.44715335965156555,0.5271766781806946
1773231959632715800,12.2227158203125,2.56257963180542,0.47280970215797424,0.5314527750015259
1773231959644738800,12.23473876953125,2.299907684326172,0.494189977645874,0.5155702829360962
1773231959660731000,12.25073095703125,1.9608774185180664,0.49296826124191284,0.44165557622909546
1773231959676719400,12.26671923828125,1.6071864366531372,0.4709770977497101,0.34513887763023376
1773231959692713200,12.282713134765626,1.197295904159546,0.44715335965156555,0.2730567753314972
1773231959708733000,12.29873291015625,0.7165449261665344,0.40744712948799133,0.22540926933288574
1773231959724724000,12.314723876953124,0.1875356286764145,0.32986724376678467,0.19058994948863983
1773231959740714800,12.33071484375,-0.3591887652873993,0.21074850857257843,0.18325957655906677
1773231959752741600,12.34274169921875,-0.7202101349830627,0.1270599663257599,0.2076941877603531
1773231959764733400,12.3547333984375,-1.0891727209091187,0.02871066704392433,0.23335053026676178
1773231959780725200,12.370725341796875,-1.5442672967910767,-0.07513642311096191,0.23884831368923187
1773231959796716000,12.386716064453125,-1.948660135269165,-0.152105450630188,0.23273965716362
1773231959812737500,12.402737548828124,-2.2620339393615723,-0.15271630883216858,0.23640485107898712
1773231959828729300,12.418729248046875,-2.4086415767669678,-0.1258382350206375,0.23640485107898712
1773231959844719600,12.4347197265625,-2.4214699268341064,-0.15393804013729095,0.17959438264369965
1773231959860712000,12.4507119140625,-2.386650562286377,-0.21807889640331268,0.05314527451992035
1773231959876733400,12.4667333984375,-2.37321138381958,-0.2926044464111328,-0.13500121235847473
1773231959892724000,12.482723876953125,-2.4190263748168945,-0.39767327904701233,-0.3543018400669098
1773231959908714500,12.498714599609375,-2.557692766189575,-0.5265658497810364,-0.5277875661849976
1773231959924735000,12.51473486328125,-2.73301100730896,-0.6359107494354248,-0.5992587804794312
1773231959936731100,12.526731201171875,-2.794097661972046,-0.6902777552604675,-0.6017022728919983
1773231959952723500,12.542723388671876,-2.7562239170074463,-0.7489207983016968,-0.5772676467895508
1773231959964715500,12.554715576171875,-2.6554312705993652,-0.7623597979545593,-0.5558874011039734
1773231959980735700,12.57073583984375,-2.459343433380127,-0.7153232097625732,-0.5638286471366882
1773231959996727800,12.586727783203125,-2.331061840057373,-0.6432411074638367,-0.6530149579048157
1773231960012720000,12.60272021484375,-2.317011833190918,-0.5778785347938538,-0.8038986921310425
1773231960028710400,12.61871044921875,-2.381152629852295,-0.5455026626586914,-0.960280179977417
1773231960044731100,12.634731201171874,-2.4355196952819824,-0.5705481171607971,-1.1734721660614014
1773231960060722400,12.650722412109374,-2.450791358947754,-0.6591235995292664,-1.4330898523330688
1773231960076714200,12.66671435546875,-2.4685065746307373,-0.7831292152404785,-1.6627751588821411
1773231960092737800,12.68273779296875,-2.4697282314300537,-0.9053022861480713,-1.7873916625976562
1773231960108698400,12.698698486328125,-2.4746150970458984,-1.0134254693984985,-1.806328535079956
1773231960124717600,12.714717529296875,-2.459343433380127,-1.0983357429504395,-1.7531832456588745
1773231960140709000,12.730709228515625,-2.3909265995025635,-1.1325441598892212,-1.6383405923843384
1773231960156730600,12.746730712890624,-2.269975185394287,-1.0561859607696533,-1.4721852540969849
1773231960172724700,12.762724853515625,-2.1398608684539795,-0.8845328688621521,-1.2846496105194092
1773231960188715500,12.778715576171875,-2.043344259262085,-0.6334672570228577,-1.0500773191452026
1773231960204736800,12.79473681640625,-1.9333884716033936,-0.3286454975605011,-0.7678576111793518
1773231960220727300,12.810727294921875,-1.7941112518310547,-0.04642575979232788,-0.46670106053352356
1773231960236718300,12.82671826171875,-1.6481144428253174,0.2021963894367218,-0.1667662113904953
1773231960252712200,12.842712158203126,-1.4776830673217773,0.4990769028663635,0.08491026610136032
1773231960268732400,12.858732421875,-1.246165156364441,0.7153232097625732,0.25534167885780334
1773231960284721200,12.87472119140625,-0.9712757468223572,0.8588765263557434,0.5064072608947754
1773231960300712400,12.89071240234375,-0.588874101638794,0.9999864101409912,0.7800748944282532
1773231960316734200,12.906734130859375,0.015882495790719986,1.1136072874069214,0.7996225953102112
1773231960332728600,12.922728515625,0.9144652485847473,1.0800096988677979,0.5601634383201599
1773231960348718600,12.938718505859375,1.825876235961914,0.8894197940826416,0.2736676335334778
1773231960364739600,12.954739501953124,2.48988676071167,0.6511823534965515,0.15760323405265808
1773231960380731100,12.970731201171875,2.8631253242492676,0.41599923372268677,0.22296582162380219
1773231960396722000,12.986721923828124,3.028669834136963,0.242513507604599,0.37751471996307373
1773231960412714500,13.002714599609375,3.0976977348327637,0.14966198801994324,0.5644394755363464
1773231960428734200,13.018734130859375,3.2033772468566895,0.15027284622192383,0.7531968355178833
1773231960444727000,13.03472705078125,3.4049627780914307,0.2021963894367218,0.8833111524581909
1773231960460716000,13.050716064453125,3.6590828895568848,0.26572638750076294,0.8943067193031311
1773231960476707600,13.06670751953125,3.850283622741699,0.3219259977340698,0.8680394887924194
1773231960492731400,13.0827314453125,3.966958999633789,0.4050036668777466,0.8753699064254761
1773231960508722000,13.098721923828125,3.9461894035339355,0.5192354321479797,0.9071348905563354
1773231960524713000,13.114712890625,3.841731548309326,0.6377432942390442,0.99876469373703
1773231960540734500,13.130734375,3.717725992202759,0.7489207983016968,1.0580185651779175
1773231960556725800,13.146725830078125,3.581502914428711,0.8301658630371094,1.0586295127868652
1773231960572718600,13.162718505859376,3.4300084114074707,0.8491026759147644,1.0378600358963013
1773231960588737000,13.178737060546876,3.2394185066223145,0.8191702961921692,0.9828822016716003
1773231960604729300,13.194729248046874,3.0158417224884033,0.7812966704368591,0.9291260242462158
1773231960620719400,13.21071923828125,2.7623326778411865,0.7275404930114746,0.8839219808578491
1773231960636711200,13.226711181640624,2.475836753845215,0.6597344875335693,0.8191702961921692
1773231960652734700,13.242734619140625,2.172236919403076,0.6047565937042236,0.7354817390441895
1773231960668726300,13.258726318359376,1.8753563165664673,0.5516113042831421,0.6530149579048157
1773231960684716000,13.274716064453125,1.585806131362915,0.49357911944389343,0.5736024379730225
1773231960700706800,13.290706787109375,1.2705997228622437,0.46853363513946533,0.5082398653030396
1773231960716727800,13.306727783203126,0.9621127843856812,0.44104471802711487,0.413555771112442
1773231960732720400,13.322720458984374,0.646906316280365,0.37262779474258423,0.23640485107898712
1773231960748712000,13.3387119140625,0.29077184200286865,0.24556782841682434,0.01466076634824276
1773231960764732400,13.354732421875,-0.08124507963657379,0.05253441259264946,-0.17104226350784302
1773231960780724700,13.370724853515625,-0.4282165467739105,-0.2021963894367218,-0.3078760802745819
1773231960796714500,13.386714599609375,-0.7244861721992493,-0.3891211748123169,-0.3903428912162781
1773231960812739000,13.402739013671875,-1.0335839986801147,-0.5051855444908142,-0.4294382631778717
1773231960828728000,13.41872802734375,-1.3683381080627441,-0.5656611919403076,-0.4386012554168701
1773231960844722000,13.434721923828125,-1.606575608253479,-0.5931501388549805,-0.4300491213798523
1773231960860710100,13.450710205078124,-1.7018705606460571,-0.6328563690185547,-0.45142942667007446
1773231960876731400,13.4667314453125,-1.7165313959121704,-0.645684540271759,-0.423329621553421
1773231960892726000,13.48272607421875,-1.7043139934539795,-0.6279694437980652,-0.35674530267715454
1773231960908715500,13.498715576171875,-1.7269160747528076,-0.5809328556060791,-0.2974913716316223
1773231960924737800,13.51473779296875,-1.8393152952194214,-0.5125159621238708,-0.26939156651496887
1773231960940728600,13.530728515625,-2.051896333694458,-0.4502076804637909,-0.2681698501110077
1773231960956720000,13.54672021484375,-2.285857677459717,-0.38728857040405273,-0.2632829248905182
1773231960972711700,13.562711669921875,-2.4495697021484375,-0.33169981837272644,-0.24923302233219147
1773231960988734500,13.578734375,-2.5027148723602295,-0.3066543638706207,-0.2742784917354584
1773231961004724700,13.594724853515626,-2.459954261779785,-0.3017674386501312,-0.3738495409488678
1773231961020714800,13.61071484375,-2.4190263748168945,-0.31459560990333557,-0.5210680365562439
1773231961036735700,13.62673583984375,-2.4807238578796387,-0.35613444447517395,-0.6786713004112244
1773231961052728600,13.642728515625,-2.6566529273986816,-0.4080579876899719,-0.7849618196487427
1773231961068717600,13.658717529296876,-2.8148670196533203,-0.45142942667007446,-0.8417723178863525
1773231961084710400,13.67471044921875,-2.839301586151123,-0.5094616413116455,-0.8607091307640076
1773231961100731100,13.690731201171875,-2.7934868335723877,-0.5320636034011841,-0.8729264140129089
1773231961116722400,13.706722412109375,-2.7427849769592285,-0.5571091175079346,-0.9138544201850891
1773231961132713700,13.722713623046875,-2.7097983360290527,-0.5626068711280823,-0.9651671051979065
1773231961148737500,13.738737548828125,-2.654820442199707,-0.5406157374382019,-0.988990843296051
1773231961164728300,13.754728271484375,-2.521040916442871,-0.513737678527832,-0.9779952764511108
1773231961180717300,13.77071728515625,-2.3328943252563477,-0.45631635189056396,-0.9450085163116455
1773231961196711200,13.786711181640625,-2.1306979656219482,-0.3836233615875244,-0.8991936445236206
1773231961212733000,13.80273291015625,-1.9462167024612427,-0.31031954288482666,-0.8216137290000916
1773231961224726800,13.814726806640625,-1.788002610206604,-0.24617868661880493,-0.7397578358650208
1773231961236718800,13.82671875,-1.6041321754455566,-0.18020524084568024,-0.6768386960029602
1773231961252710000,13.8427099609375,-1.3353514671325684,-0.07757988572120667,-0.6340781450271606
1773231961268731400,13.8587314453125,-1.0378600358963013,-0.018936822190880775,-0.6035348773002625
1773231961284722400,13.874722412109374,-0.7043276429176331,-0.05192354694008827,-0.46364670991897583
1773231961300712200,13.890712158203126,-0.3396410644054413,-0.06108652427792549,-0.15760323405265808
1773231961316736500,13.906736572265626,0.07269296050071716,0.039706241339445114,0.16920967400074005
1773231961332726500,13.9227265625,0.6120869517326355,0.23151792585849762,0.403781920671463
1773231961348718600,13.938718505859375,1.2858713865280151,0.40622538328170776,0.5852088928222656
1773231961364710100,13.954710205078126,1.9309450387954712,0.4905247986316681,0.7367035150527954
1773231961380729600,13.9707294921875,2.400700330734253,0.4996877610683441,0.8613200187683105
1773231961396722200,13.98672216796875,2.646879196166992,0.4697553813457489,0.9749409556388855
1773231961412713500,14.00271337890625,2.791043281555176,0.4691445231437683,1.0891727209091187
1773231961428735500,14.018735595703125,2.9517009258270264,0.5015203952789307,1.1917980909347534
1773231961444727000,14.03472705078125,3.163060188293457,0.5369505286216736,1.2400563955307007
1773231961460716300,14.05071630859375,3.377473831176758,0.5668829679489136,1.2229522466659546
1773231961476738000,14.066738037109374,3.55645751953125,0.5937610268592834,1.1643091440200806
1773231961492729900,14.082729736328124,3.7140607833862305,0.6255260109901428,1.0787880420684814
1773231961508721000,14.098720947265624,3.79958176612854,0.6676757335662842,1.0036516189575195
1773231961524713000,14.114712890625,3.8069121837615967,0.7171558141708374,0.9871582388877869
1773231961540735000,14.13073486328125,3.752545118331909,0.7544185519218445,1.0085384845733643
1773231961556724500,14.146724365234375,3.6578609943389893,0.759916365146637,1.0085384845733643
1773231961572718600,14.162718505859376,3.539964199066162,0.7446447610855103,0.9871582388877869
1773231961588707000,14.17870703125,3.3841934204101562,0.7354817390441895,0.9486737251281738
1773231961604731100,14.194731201171875,3.2009339332580566,0.6957755088806152,0.8930850028991699
1773231961620722200,14.21072216796875,2.976135492324829,0.6163630485534668,0.8527678847312927
1773231961636711400,14.22671142578125,2.7421741485595703,0.5632177591323853,0.7935139536857605
1773231961652733700,14.242733642578125,2.495384454727173,0.4660901725292206,0.6493497490882874
1773231961668726500,14.2587265625,2.1893410682678223,0.37201693654060364,0.43188172578811646
1773231961684716500,14.274716552734375,1.82404363155365,0.28649580478668213,0.16798794269561768
1773231961700737000,14.290737060546874,1.4288138151168823,0.2021963894367218,-0.09834930300712585
1773231961716729300,14.306729248046874,1.0036516189575195,0.12278391420841217,-0.35246923565864563
1773231961732722400,14.322722412109375,0.5448917746543884,0.06108652427792549,-0.6279694437980652
1773231961748711200,14.338711181640624,0.03787364438176155,-0.001832595793530345,-0.9285151958465576
1773231961764733400,14.3547333984375,-0.5076290369033813,-0.07635815441608429,-1.1820242404937744
1773231961776727000,14.36672705078125,-0.9260717034339905,-0.1368338167667389,-1.3078625202178955
1773231961788720000,14.37872021484375,-1.3377948999404907,-0.17043140530586243,-1.359175205230713
1773231961804711000,14.3947109375,-1.817324161529541,-0.182648703455925,-1.3041973114013672
1773231961820732200,14.410732177734374,-2.216219186782837,-0.13316862285137177,-1.1398745775222778
1773231961836723200,14.42672314453125,-2.4636194705963135,-0.05803219974040985,-0.921795666217804
1773231961852716000,14.442716064453125,-2.554027557373047,-0.048258353024721146,-0.6908885836601257
1773231961868737500,14.458737548828125,-2.5051584243774414,-0.09529497474431992,-0.4355469346046448
1773231961884727600,14.4747275390625,-2.400700330734253,-0.2223549485206604,-0.19547687470912933
1773231961896722400,14.486722412109375,-2.372600555419922,-0.31093040108680725,-0.05864306539297104
1773231961912714800,14.50271484375,-2.4269676208496094,-0.3854559659957886,0.12400564551353455
1773231961924737300,14.5147373046875,-2.5308146476745605,-0.41172316670417786,0.2718350291252136
1773231961940730000,14.530730224609375,-2.682920217514038,-0.38606682419776917,0.4453207552433014
1773231961956717800,14.5467177734375,-2.7818803787231445,-0.303600013256073,0.53328537940979
1773231961972711200,14.562711181640625,-2.805704116821289,-0.19425514340400696,0.49357911944389343
1773231961988733000,14.57873291015625,-2.7873780727386475,-0.09040805697441101,0.32620203495025635
1773231962004723700,14.5947236328125,-2.7812695503234863,-0.030543262138962746,0.10201449692249298
1773231962016718600,14.606718505859375,-2.805704116821289,-0.04642575979232788,-0.0708603709936142
1773231962028708900,14.618708984375,-2.8649580478668213,-0.09651670604944229,-0.20830504596233368
1773231962044732400,14.634732421875,-2.965139865875244,-0.17104226350784302,-0.31520646810531616
1773231962060723500,14.650723388671874,-3.0305025577545166,-0.2730567753314972,-0.3683517575263977
1773231962076713000,14.666712890625,-3.0298917293548584,-0.35613444447517395,-0.42760565876960754
1773231962092737500,14.682737548828126,-2.9798007011413574,-0.38240164518356323,-0.45753806829452515
1773231962108726500,14.6987265625,-2.889392614364624,-0.3597996234893799,-0.44654250144958496
1773231962124720600,14.714720703125,-2.791654109954834,-0.36102136969566345,-0.4098905920982361
1773231962140708600,14.73070849609375,-2.6749789714813232,-0.36224308609962463,-0.33597588539123535
1773231962156730600,14.746730712890624,-2.510045289993286,-0.29565876722335815,-0.26450464129447937
1773231962172722200,14.76272216796875,-2.271807909011841,-0.2223549485206604,-0.24129177629947662
1773231962188712700,14.778712646484376,-1.9639317989349365,-0.17531833052635193,-0.23396138846874237
1773231962204734200,14.794734130859375,-1.588249683380127,-0.1508837193250656,-0.19058994948863983
1773231962220726500,14.8107265625,-1.1740829944610596,-0.13377949595451355,-0.10262536257505417
1773231962236719000,14.826718994140625,-0.7770205736160278,-0.15393804013729095,-0.02871066704392433
1773231962252710000,14.8427099609375,-0.394008070230484,-0.16798794269561768,0.018936822190880775
1773231962268730400,14.85873046875,0.039095375686883926,-0.24923302233219147,0.11667526513338089
1773231962284723500,14.874723388671875,0.46181413531303406,-0.2816088795661926,0.3793473243713379
1773231962300715500,14.890715576171875,0.8588765263557434,-0.08857546001672745,0.6896668672561646
1773231962316735200,14.9067353515625,1.2919800281524658,0.2932153046131134,0.817337691783905
1773231962332727800,14.922727783203126,1.7617353200912476,0.6957755088806152,0.769079327583313
1773231962348719000,14.938718994140626,2.1923954486846924,1.0128145217895508,0.675616979598999
1773231962364738600,14.954738525390624,2.5613579750061035,1.1966849565505981,0.5656611919403076
1773231962380730400,14.97073046875,2.8466320037841797,1.2095131874084473,0.42577308416366577
1773231962396721000,14.986720947265624,3.050661087036133,1.0512990951538086,0.30604347586631775
1773231962412714200,15.00271435546875,3.226590156555176,0.8203920125961304,0.23151792585849762
1773231962428736500,15.018736572265626,3.400075912475586,0.5736024379730225,0.16371189057826996
1773231962444724700,15.034724853515625,3.629150390625,0.3695734739303589,0.07880161702632904
1773231962460717800,15.0507177734375,3.857614040374756,0.19914206862449646,0.006719517521560192
1773231962476707600,15.06670751953125,4.0103302001953125,0.12095131725072861,-0.021991148591041565
1773231962492730600,15.082730712890625,4.060421466827393,0.1362229436635971,-0.0006108652451075613
1773231962508720400,15.098720458984374,4.092186450958252,0.24923302233219147,0.09896016865968704
1773231962524713700,15.114713623046875,4.112955570220947,0.41111230850219727,0.22296582162380219
1773231962540733200,15.130733154296875,4.071416854858398,0.5833762884140015,0.3084869384765625
1773231962556725000,15.14672509765625,3.955352544784546,0.7299839854240417,0.35613444447517395
1773231962572718600,15.162718505859376,3.7922513484954834,0.8002334833145142,0.3732386529445648
1773231962588738800,15.17873876953125,3.5967745780944824,0.8038986921310425,0.34574973583221436
1773231962604730600,15.194730712890625,3.3341023921966553,0.7654141783714294,0.31520646810531616
1773231962620721200,15.21072119140625,3.0378329753875732,0.6701191663742065,0.3090978264808655
1773231962636712200,15.226712158203124,2.729956865310669,0.5791002511978149,0.3072652220726013
1773231962652735500,15.242735595703126,2.4086415767669678,0.4691445231437683,0.2767219543457031
1773231962668727300,15.258727294921876,2.060448408126831,0.36102136969566345,0.21807889640331268
1773231962684715000,15.274715087890625,1.6908750534057617,0.2877175211906433,0.17104226350784302
1773231962700737800,15.29073779296875,1.29381263256073,0.2528982162475586,0.1313360333442688
1773231962716727800,15.306727783203126,0.8796459436416626,0.252287358045578,0.0910189226269722
1773231962732722200,15.32272216796875,0.4105014503002167,0.2565633952617645,0.027488935738801956
1773231962748711200,15.338711181640624,-0.13316862285137177,0.2577851414680481,-0.06230825558304787
1773231962764734500,15.354734375,-0.7110471725463867,0.2064724564552307,-0.1618792861700058
1773231962776726800,15.366726806640624,-1.1252137422561646,0.12889257073402405,-0.22113321721553802
1773231962788721400,15.378721435546876,-1.49906325340271,0.042760565876960754,-0.2632829248905182
1773231962804711200,15.394711181640625,-1.9181169271469116,-0.07941248267889023,-0.2816088795661926
1773231962820733000,15.41073291015625,-2.2907447814941406,-0.2070833146572113,-0.2816088795661926
1773231962836723700,15.4267236328125,-2.5705208778381348,-0.2675589919090271,-0.23151792585849762
1773231962852716500,15.442716552734375,-2.7293457984924316,-0.3243694305419922,-0.20525072515010834
1773231962868738600,15.458738525390626,-2.8203649520874023,-0.39156460762023926,-0.22968533635139465
1773231962884727800,15.474727783203125,-2.880840539932251,-0.44226643443107605,-0.3090978264808655
1773231962900718600,15.490718505859375,-2.970026731491089,-0.4893030524253845,-0.4086688458919525
1773231962916710000,15.5067099609375,-3.0995302200317383,-0.5363397002220154,-0.46547931432724
1773231962932734200,15.522734130859375,-3.249803066253662,-0.5448917746543884,-0.43249258399009705
1773231962948723200,15.53872314453125,-3.3597588539123535,-0.5161811113357544,-0.3378084897994995
1773231962964714500,15.554714599609374,-3.333491563796997,-0.4404338300228119,-0.19486601650714874
1773231962980735700,15.57073583984375,-3.1807754039764404,-0.33047810196876526,-0.06780604273080826
1773231962996727300,15.586727294921875,-2.9663615226745605,-0.22052235901355743,-0.025656340643763542
1773231963012718600,15.602718505859375,-2.808147430419922,-0.13377949595451355,-0.10506882518529892
1773231963024713700,15.614713623046875,-2.7427849769592285,-0.09834930300712585,-0.22479841113090515
1773231963036736000,15.626736083984374,-2.7281241416931152,-0.09712757170200348,-0.35552358627319336
1773231963052729900,15.642729736328125,-2.741563320159912,-0.17104226350784302,-0.5467243790626526
1773231963068718600,15.658718505859374,-2.7513370513916016,-0.27122417092323303,-0.6676757335662842
1773231963084711000,15.6747109375,-2.726902484893799,-0.3445279896259308,-0.7330383062362671
1773231963100732400,15.690732421875,-2.674368143081665,-0.3982841372489929,-0.7525860071182251
1773231963116722700,15.70672265625,-2.613281488418579,-0.4538728892803192,-0.7550294399261475
1773231963132715000,15.722715087890625,-2.5393667221069336,-0.513737678527832,-0.7354817390441895
1773231963148735700,15.73873583984375,-2.4049763679504395,-0.5461135506629944,-0.6976081132888794
1773231963164726500,15.7547265625,-2.196671485900879,-0.503963828086853,-0.6572909951210022
1773231963180717800,15.7707177734375,-1.9443840980529785,-0.4239404797554016,-0.6475171446800232
1773231963196710000,15.7867099609375,-1.6896532773971558,-0.3280346393585205,-0.6340781450271606
1773231963212733000,15.80273291015625,-1.4575244188308716,-0.24068090319633484,-0.5760459303855896
1773231963228722700,15.81872265625,-1.2278391122817993,-0.16798794269561768,-0.4697553813457489
1773231963244716300,15.83471630859375,-0.970054030418396,-0.14905111491680145,-0.3897320330142975
1773231963260734700,15.850734619140624,-0.6890559792518616,-0.1362229436635971,-0.3738495409488678
1773231963276727300,15.866727294921875,-0.3536909818649292,-0.18325957655906677,-0.3536909818649292
1773231963292719400,15.88271923828125,0.02076941914856434,-0.2919935882091522,-0.1973094791173935
1773231963308709400,15.89870947265625,0.3536909818649292,-0.3378084897994995,0.12950342893600464
1773231963324731400,15.9147314453125,0.6585127115249634,-0.1722639948129654,0.513126790523529
1773231963340721200,15.93072119140625,1.0531316995620728,0.19425514340400696,0.7819074988365173
1773231963356713200,15.946713134765625,1.5528194904327393,0.5907067060470581,0.9010262489318848
1773231963372736300,15.962736328125,2.0305161476135254,0.8991936445236206,0.9334021210670471
1773231963388727800,15.978727783203125,2.3884830474853516,1.0598511695861816,0.8857545852661133
1773231963404717600,15.994717529296874,2.6358835697174072,1.081842303276062,0.7953465580940247
1773231963420740600,16.01074072265625,2.8319711685180664,0.9248499870300293,0.720820963382721
1773231963436731100,16.026731201171874,3.0274481773376465,0.6982190012931824,0.6493497490882874
1773231963452723700,16.0427236328125,3.238807439804077,0.46181413531303406,0.5320636034011841
1773231963468711700,16.058711669921873,3.472769021987915,0.24129177629947662,0.3744603991508484
1773231963484733700,16.074733642578124,3.709784746170044,0.05375614017248154,0.20463985204696655
1773231963500725000,16.09072509765625,3.8179078102111816,-0.02871066704392433,0.1264491081237793
1773231963516716300,16.10671630859375,3.850283622741699,-0.051312681287527084,0.1160643994808197
1773231963532741000,16.1227412109375,3.830125093460083,0.05375614017248154,0.21502456068992615
1773231963548729900,16.138729736328123,3.7610974311828613,0.20830504596233368,0.40744712948799133
1773231963564722200,16.15472216796875,3.665191411972046,0.3830125033855438,0.5931501388549805
1773231963580712400,16.17071240234375,3.565009593963623,0.5064072608947754,0.675616979598999
1773231963592738600,16.182738525390626,3.4629950523376465,0.5540547966957092,0.675006091594696
1773231963604731000,16.19473095703125,3.308446168899536,0.5907067060470581,0.6438519954681396
1773231963620720600,16.210720703125,3.0671544075012207,0.6126978397369385,0.6035348773002625
1773231963636711000,16.2267109375,2.7714955806732178,0.5943718552589417,0.5613851547241211
1773231963652735700,16.24273583984375,2.4776694774627686,0.5693264007568359,0.5186246037483215
1773231963668725500,16.2587255859375,2.194838762283325,0.5271766781806946,0.45631635189056396
1773231963684715000,16.274715087890623,1.929112434387207,0.45204028487205505,0.3335324227809906
1773231963700737000,16.290737060546874,1.615127682685852,0.3701843321323395,0.17898350954055786
1773231963716727800,16.306727783203126,1.2492194175720215,0.2840523421764374,0.033597588539123535
1773231963732722200,16.32272216796875,0.8124507665634155,0.19853121042251587,-0.11728613078594208
1773231963748713200,16.338713134765626,0.33108896017074585,0.13561208546161652,-0.27122417092323303
1773231963764735500,16.354735595703126,-0.15027284622192383,0.08002334833145142,-0.4392121136188507
1773231963780723500,16.370723388671873,-0.6475171446800232,-0.00733038317412138,-0.6255260109901428
1773231963796714800,16.38671484375,-1.1435397863388062,-0.09224065393209457,-0.7629706859588623
1773231963808710100,16.398710205078125,-1.4862351417541504,-0.1563815027475357,-0.8222246170043945
1773231963820734000,16.41073388671875,-1.7849482297897339,-0.2076941877603531,-0.8576548099517822
1773231963836723000,16.426722900390626,-2.138639211654663,-0.251676470041275,-0.8930850028991699
1773231963852716800,16.442716796875,-2.448347806930542,-0.3090978264808655,-0.8918632864952087
1773231963868737500,16.458737548828125,-2.6481008529663086,-0.4440990388393402,-0.8203920125961304
1773231963884727300,16.474727294921873,-2.6309967041015625,-0.6133087277412415,-0.7000515460968018
1773231963900719600,16.4907197265625,-2.498438835144043,-0.7391469478607178,-0.5638286471366882
1773231963916712400,16.50671240234375,-2.4556782245635986,-0.8069530129432678,-0.4141666293144226
1773231963932734200,16.522734130859376,-2.525927782058716,-0.7336491346359253,-0.26083946228027344
1773231963948722700,16.53872265625,-2.6871962547302246,-0.5290092825889587,-0.07757988572120667
1773231963964715000,16.554715087890624,-2.892446994781494,-0.2638937830924988,0.06841690838336945
1773231963980736300,16.570736328125,-3.0408871173858643,-0.039706241339445114,0.13377949595451355
1773231963996726800,16.586726806640623,-3.09586501121521,0.06475171446800232,0.09651670604944229
1773231964012720400,16.602720458984376,-3.0952541828155518,0.0708603709936142,-0.014049900695681572
1773231964024712700,16.614712646484374,-3.0830368995666504,0.02932153269648552,-0.09407325088977814
1773231964036737000,16.626737060546876,-3.0744848251342773,-0.015271631069481373,-0.15027284622192383
1773231964052728000,16.64272802734375,-3.115412712097168,-0.09224065393209457,-0.1508837193250656
1773231964068717600,16.658717529296876,-3.179553508758545,-0.13866640627384186,-0.05375614017248154
1773231964084710000,16.6747099609375,-3.199101209640503,-0.10201449692249298,0.07635815441608429
1773231964100731100,16.690731201171875,-3.11785626411438,-0.01160643994808197,0.15271630883216858
1773231964116723500,16.706723388671875,-2.9437596797943115,0.06841690838336945,0.14538592100143433
1773231964132727600,16.7227275390625,-2.73301100730896,0.03237585723400116,0.06108652427792549
1773231964148748500,16.73874853515625,-2.517986536026001,-0.07880161702632904,-0.05497787147760391
1773231964164738300,16.75473828125,-2.288912057876587,-0.20341812074184418,-0.16554448008537292
1773231964180730000,16.770730224609373,-2.0415115356445312,-0.33108896017074585,-0.28955012559890747
1773231964196721400,16.786721435546873,-1.750128984451294,-0.42638394236564636,-0.3903428912162781
1773231964212743400,16.802743408203124,-1.4508049488067627,-0.4801400899887085,-0.4031710624694824
1773231964228735000,16.81873486328125,-1.1618657112121582,-0.48319441080093384,-0.28588494658470154
1773231964244726500,16.8347265625,-0.8582656979560852,-0.44226643443107605,-0.09773843735456467
1773231964260746800,16.850746826171875,-0.5876523852348328,-0.33475416898727417,0.05314527451992035
1773231964272742700,16.86274267578125,-0.37262779474258423,-0.22357667982578278,0.10873401165008545
1773231964284733200,16.874733154296877,-0.13805554807186127,-0.11239920556545258,0.17409659922122955
1773231964300726500,16.8907265625,0.20525072515010834,0.05497787147760391,0.36713001132011414
1773231964316749000,16.9067490234375,0.6004805564880371,0.31642818450927734,0.5516113042831421
1773231964332739300,16.9227392578125,1.1197160482406616,0.6090326309204102,0.5222898125648499
1773231964348729900,16.938729736328124,1.720807433128357,0.7971791625022888,0.31581732630729675
1773231964364721400,16.954721435546876,2.2791383266448975,0.8643743395805359,0.06658431142568588
1773231964380743700,16.97074365234375,2.722015619277954,0.8124507665634155,-0.18509216606616974
1773231964396733200,16.986733154296875,3.0170633792877197,0.6340781450271606,-0.39645153284072876
1773231964412726000,17.00272607421875,3.2082643508911133,0.36163222789764404,-0.5387831330299377
1773231964428747800,17.018747802734374,3.3622024059295654,0.09468411654233932,-0.607200026512146
1773231964444738000,17.034738037109374,3.494760036468506,-0.10567969083786011,-0.6029239892959595
1773231964460729300,17.050729248046874,3.608991861343384,-0.24617868661880493,-0.5491678714752197
1773231964476750300,17.066750244140625,3.6975672245025635,-0.29565876722335815,-0.413555771112442
1773231964492744400,17.082744384765626,3.7391061782836914,-0.23884831368923187,-0.19853121042251587
1773231964508734700,17.098734619140625,3.749490976333618,-0.07819075137376785,0.05619960278272629
1773231964524725200,17.114725341796873,3.749490976333618,0.15332718193531036,0.31154128909111023
1773231964540747300,17.130747314453124,3.7006216049194336,0.40256020426750183,0.5314527750015259
1773231964556739300,17.1467392578125,3.5857789516448975,0.6414085030555725,0.6963863968849182
1773231964572729000,17.16272900390625,3.433062791824341,0.7959573864936829,0.7831292152404785
1773231964588720600,17.178720703125,3.2473597526550293,0.8747590184211731,0.8008443117141724
1773231964604740900,17.194740966796875,3.009122133255005,0.9071348905563354,0.7916813492774963
1773231964620734000,17.21073388671875,2.719572067260742,0.8796459436416626,0.7715228199958801
1773231964636725800,17.226725830078124,2.39520263671875,0.8130616545677185,0.7189884185791016
1773231964652747300,17.242747314453126,2.0506746768951416,0.7525860071182251,0.6420193910598755
1773231964668737500,17.258737548828126,1.7153096199035645,0.685390830039978,0.5161811113357544
1773231964684729000,17.27472900390625,1.395827054977417,0.6120869517326355,0.3536909818649292
1773231964700749300,17.290749267578125,1.0500773191452026,0.5210680365562439,0.1466076523065567
1773231964716743200,17.3067431640625,0.66584312915802,0.4349360466003418,-0.06230825558304787
1773231964732735000,17.32273486328125,0.2590068578720093,0.2987131178379059,-0.2736676335334778
1773231964748723200,17.33872314453125,-0.16798794269561768,0.13255776464939117,-0.45814892649650574
1773231964764745200,17.3547451171875,-0.5601634383201599,-0.03848451003432274,-0.5766568183898926
1773231964780736000,17.370736083984376,-0.9156870245933533,-0.21380282938480377,-0.6322455406188965
1773231964792732000,17.38273193359375,-1.2021827697753906,-0.3139847218990326,-0.6139195561408997
1773231964804723500,17.394723388671874,-1.483791708946228,-0.3695734739303589,-0.5400048494338989
1773231964820746200,17.410746337890625,-1.86191725730896,-0.4105014503002167,-0.41172316670417786
1773231964836736000,17.426736083984373,-2.219273328781128,-0.42699480056762695,-0.26572638750076294
1773231964852728000,17.44272802734375,-2.4324653148651123,-0.4544837474822998,-0.11056660860776901
1773231964868748300,17.458748291015624,-2.464841365814209,-0.5064072608947754,0.04092797264456749
1773231964884741000,17.4747412109375,-2.3909265995025635,-0.5540547966957092,0.1472185254096985
1773231964900732400,17.490732421875,-2.3218986988067627,-0.5949827432632446,0.19120082259178162
1773231964916722700,17.50672265625,-2.331061840057373,-0.636521577835083,0.2021963894367218
1773231964932745500,17.522745361328123,-2.445293664932251,-0.6426302194595337,0.21930062770843506
1773231964948736800,17.53873681640625,-2.6316075325012207,-0.5528330206871033,0.23884831368923187
1773231964964727300,17.554727294921875,-2.7849347591400146,-0.40622538328170776,0.21807889640331268
1773231964980750000,17.57075,-2.819753885269165,-0.29016098380088806,0.14416420459747314
1773231964996739600,17.586739501953126,-2.7030787467956543,-0.252287358045578,0.05925392732024193
1773231965012733400,17.6027333984375,-2.523484230041504,-0.25106561183929443,-0.07269296050071716
1773231965028723200,17.61872314453125,-2.445904493331909,-0.30115658044815063,-0.2620611786842346
1773231965044744000,17.634743896484373,-2.512488842010498,-0.3732386529445648,-0.4294382631778717
1773231965060735200,17.6507353515625,-2.6340508460998535,-0.46181413531303406,-0.513737678527832
1773231965076727600,17.6667275390625,-2.7238481044769287,-0.5283984541893005,-0.49846604466438293
1773231965092751000,17.682751220703125,-2.741563320159912,-0.5174028873443604,-0.44287729263305664
1773231965108741000,17.6987412109375,-2.6920831203460693,-0.485027015209198,-0.3952298164367676
1773231965124730400,17.71473046875,-2.5894577503204346,-0.423329621553421,-0.3292563557624817
1773231965140724500,17.730724365234376,-2.487443208694458,-0.34758231043815613,-0.27061331272125244
1773231965156745700,17.746745849609376,-2.3890938758850098,-0.251676470041275,-0.24007004499435425
1773231965172737800,17.76273779296875,-2.2632558345794678,-0.1514945775270462,-0.2620611786842346
1773231965188728800,17.778728759765624,-2.0586159229278564,-0.08796459436416626,-0.28466320037841797
1773231965204750300,17.794750244140626,-1.7544050216674805,-0.025656340643763542,-0.2528982162475586
1773231965220739600,17.810739501953126,-1.4269812107086182,0.010995574295520782,-0.15943582355976105
1773231965236730400,17.82673046875,-1.1178834438323975,0.01466076634824276,-0.0403171069920063
1773231965252724000,17.842723876953126,-0.8258898258209229,0.07147123664617538,0.022602014243602753
1773231965268745700,17.858745849609374,-0.4917465150356293,0.14905111491680145,0.0757472887635231
1773231965284734500,17.874734375,-0.1612684279680252,0.18936823308467865,0.2528982162475586
1773231965300727000,17.89072705078125,0.16065755486488342,0.3286454975605011,0.5412266254425049
1773231965316747300,17.906747314453124,0.5082398653030396,0.6108652353286743,0.6829473376274109
1773231965328742100,17.9187421875,0.8717046976089478,0.8491026759147644,0.6444628238677979
1773231965340735000,17.93073486328125,1.2901474237442017,1.004873275756836,0.5699372887611389
1773231965356726000,17.94672607421875,1.8936822414398193,1.1478158235549927,0.41722095012664795
1773231965372747000,17.9627470703125,2.361604928970337,1.1905763149261475,0.23335053026676178
1773231965388739600,17.978739501953125,2.6395487785339355,1.13926362991333,0.05742133408784866
1773231965404730600,17.994730712890625,2.783712863922119,0.988990843296051,-0.09529497474431992
1773231965420751000,18.010751220703124,2.875342607498169,0.8008443117141724,-0.20586158335208893
1773231965436744400,18.026744384765625,2.9663615226745605,0.6340781450271606,-0.27550023794174194
1773231965452735000,18.04273486328125,3.081204414367676,0.5015203952789307,-0.3292563557624817
1773231965468725000,18.05872509765625,3.1838295459747314,0.38728857040405273,-0.34086281061172485
1773231965484746200,18.074746337890623,3.243694543838501,0.32131510972976685,-0.2889392673969269
1773231965500739000,18.090739013671875,3.2821788787841797,0.3017674386501312,-0.19547687470912933
1773231965516729000,18.10672900390625,3.2821788787841797,0.313373863697052,-0.13439035415649414
1773231965528725000,18.11872509765625,3.2681291103363037,0.38606682419776917,-0.08185594528913498
1773231965540747800,18.130747802734376,3.2369749546051025,0.4746423065662384,-0.018325956538319588
1773231965556738000,18.146738037109376,3.1752774715423584,0.5870414972305298,0.06658431142568588
1773231965572728300,18.162728271484376,3.082426071166992,0.7073819637298584,0.11545353382825851
1773231965588721200,18.17872119140625,2.955976963043213,0.7721336483955383,0.11484266817569733
1773231965604743200,18.1947431640625,2.786156415939331,0.7550294399261475,0.09040805697441101
1773231965620733000,18.21073291015625,2.576629638671875,0.7275404930114746,0.05375614017248154
1773231965636725200,18.226725341796875,2.342668294906616,0.6878342628479004,-0.00855211354792118
1773231965652747800,18.242747802734375,2.1203131675720215,0.6041457056999207,-0.12950342893600464
1773231965668739800,18.25873974609375,1.9052886962890625,0.48319441080093384,-0.33536502718925476
1773231965684729000,18.27472900390625,1.6303993463516235,0.31154128909111023,-0.6236934065818787
1773231965700752000,18.290751953125,1.2809844017028809,0.1264491081237793,-0.8912523984909058
1773231965716741000,18.3067412109375,0.8839219808578491,-0.06902777403593063,-1.0671815872192383
1773231965732734000,18.32273388671875,0.45265114307403564,-0.23457226157188416,-1.1166616678237915
1773231965748723500,18.338723388671873,0.018936822190880775,-0.3549126982688904,-1.056796908378601
1773231965764745700,18.354745849609376,-0.4086688458919525,-0.44837507605552673,-0.9077457785606384
1773231965780737500,18.370737548828124,-0.8484918475151062,-0.46181413531303406,-0.7000515460968018
1773231965796729300,18.386729248046876,-1.263269305229187,-0.3927863538265228,-0.4648684561252594
1773231965812750800,18.402750732421875,-1.6383405923843384,-0.30054569244384766,-0.25045475363731384
1773231965828742700,18.41874267578125,-1.9425514936447144,-0.2321287989616394,-0.03848451003432274
1773231965840736300,18.430736328125,-2.1123719215393066,-0.22113321721553802,0.12339477986097336
1773231965852728600,18.442728515625,-2.1954495906829834,-0.2217440903186798,0.2932153046131134
1773231965868751000,18.458751220703125,-2.213775634765625,-0.23457226157188416,0.5027421116828918
1773231965884740600,18.47474072265625,-2.2259929180145264,-0.25534167885780334,0.6603453159332275
1773231965900733700,18.490733642578125,-2.252871036529541,-0.3292563557624817,0.7770205736160278
1773231965916724500,18.506724365234376,-2.348165988922119,-0.4288274049758911,0.8753699064254761
1773231965932746000,18.52274609375,-2.488054037094116,-0.4893030524253845,0.969443142414093
1773231965948737500,18.538737548828124,-2.615725040435791,-0.47830748558044434,1.0506882667541504
1773231965964729000,18.55472900390625,-2.6670377254486084,-0.4086688458919525,1.0702359676361084
1773231965980748800,18.570748779296874,-2.64138126373291,-0.29077184200286865,1.036027431488037
1773231965996740400,18.586740234375,-2.593733787536621,-0.192422553896904,0.9468411207199097
1773231966012733000,18.60273291015625,-2.6035077571868896,-0.11850785464048386,0.8478809595108032
1773231966028724000,18.618723876953126,-2.688417911529541,-0.05497787147760391,0.797789990901947
1773231966044744400,18.634744384765625,-2.8063149452209473,-0.027488935738801956,0.8142833709716797
1773231966060735500,18.650735595703125,-2.917492389678955,-0.04459316283464432,0.8283332586288452
1773231966076726800,18.666726806640625,-2.9694159030914307,-0.04153883829712868,0.8118399381637573
1773231966092750600,18.68275048828125,-2.9407052993774414,-0.021380282938480377,0.7464773058891296
1773231966108741400,18.698741455078125,-2.814256191253662,-0.013439035043120384,0.6591235995292664
1773231966124731400,18.7147314453125,-2.623666286468506,-0.03298672288656235,0.6114761233329773
1773231966140725200,18.730725341796877,-2.3903157711029053,-0.07452555745840073,0.588874101638794
1773231966156743400,18.746743408203123,-2.1001546382904053,-0.11239920556545258,0.513126790523529
1773231966172736000,18.762736083984375,-1.722640037536621,-0.09651670604944229,0.3634648323059082
1773231966188728000,18.77872802734375,-1.2797627449035645,-0.001832595793530345,0.18020524084568024
1773231966204750000,18.79475,-0.8509352803230286,0.12400564551353455,-0.013439035043120384
1773231966220738800,18.81073876953125,-0.4709770977497101,0.18081611394882202,-0.21380282938480377
1773231966236732200,18.826732177734375,-0.13439035415649414,0.2681698501110077,-0.4098905920982361
1773231966252724200,18.84272412109375,0.21991148591041565,0.3335324227809906,-0.5681046843528748
1773231966268745000,18.858744873046874,0.5925393104553223,0.24068090319633484,-0.6139195561408997
1773231966284736800,18.87473681640625,0.9492846131324768,0.09896016865968704,-0.5253441333770752
1773231966300726800,18.890726806640625,1.2858713865280151,0.10567969083786011,-0.4544837474822998
1773231966316747300,18.906747314453124,1.6615535020828247,0.2626720666885376,-0.4893030524253845
1773231966332740900,18.922740966796876,2.13008713722229,0.4856378734111786,-0.6261368989944458
1773231966348731000,18.93873095703125,2.6028966903686523,0.5845980644226074,-0.7305948138237
1773231966364722200,18.95472216796875,2.9859092235565186,0.5736024379730225,-0.740368664264679
1773231966380743000,18.970742919921875,3.2180380821228027,0.46364670991897583,-0.7159340381622314
1773231966396734000,18.98673388671875,3.3542611598968506,0.3237585723400116,-0.6542366743087769
1773231966412726800,19.002726806640624,3.4458909034729004,0.2076941877603531,-0.5338962078094482
1773231966428747300,19.018747314453126,3.505755662918091,0.1313360333442688,-0.3738495409488678
1773231966444739800,19.03473974609375,3.545461893081665,0.10201449692249298,-0.18631389737129211
1773231966460731600,19.050731689453126,3.5851681232452393,0.13744467496871948,0.015882495790719986
1773231966476751400,19.06675146484375,3.592498540878296,0.2376265823841095,0.1966986060142517
1773231966492743200,19.0827431640625,3.5576791763305664,0.3677408695220947,0.36102136969566345
1773231966508736500,19.098736572265626,3.5069773197174072,0.5088507533073425,0.48319441080093384
1773231966524725500,19.1147255859375,3.4232888221740723,0.6450737118721008,0.5619960427284241
1773231966540748000,19.130748046875,3.266907215118408,0.7165449261665344,0.6133087277412415
1773231966556738600,19.146738525390624,3.0384438037872314,0.7568620443344116,0.645684540271759
1773231966572731100,19.162731201171876,2.7812695503234863,0.7452555894851685,0.6524040699005127
1773231966588750800,19.178750732421875,2.5222625732421875,0.7367035150527954,0.6475171446800232
1773231966604742400,19.194742431640623,2.2547035217285156,0.7354817390441895,0.6255260109901428
1773231966620733400,19.2107333984375,1.9694294929504395,0.6982190012931824,0.5491678714752197
1773231966636726000,19.22672607421875,1.6389514207839966,0.6841690540313721,0.4300491213798523
1773231966652748500,19.24274853515625,1.273043155670166,0.646295428276062,0.24495697021484375
1773231966668737500,19.258737548828126,0.8894197940826416,0.5473352670669556,0.02687807008624077
1773231966684729600,19.2747294921875,0.5112941861152649,0.4043927788734436,-0.16371189057826996
1773231966700751600,19.290751708984374,0.1661553531885147,0.21868975460529327,-0.34208452701568604
1773231966716744200,19.306744140625,-0.17409659922122955,0.006719517521560192,-0.5161811113357544
1773231966732734700,19.322734619140626,-0.5259549617767334,-0.20463985204696655,-0.6285803318023682
1773231966748725200,19.338725341796874,-0.902247965335846,-0.3701843321323395,-0.6114761233329773
1773231966764747800,19.354747802734376,-1.2834278345108032,-0.45204028487205505,-0.46670106053352356
1773231966780736800,19.37073681640625,-1.642616629600525,-0.41233405470848083,-0.26572638750076294
1773231966796728000,19.38672802734375,-1.9413297176361084,-0.3121521472930908,-0.09712757170200348
1773231966812751400,19.40275146484375,-2.182621479034424,-0.21807889640331268,0.039095375686883926
1773231966828741000,19.4187412109375,-2.331061840057373,-0.1966986060142517,0.13927727937698364
1773231966844732200,19.434732177734375,-2.37321138381958,-0.2272418737411499,0.21624629199504852
1773231966860725000,19.45072509765625,-2.367102861404419,-0.28466320037841797,0.2565633952617645
1773231966876746500,19.46674658203125,-2.362215995788574,-0.39095374941825867,0.252287358045578
1773231966892739000,19.482739013671875,-2.41719388961792,-0.5613851547241211,0.2119702398777008
1773231966908727800,19.498727783203126,-2.5473079681396484,-0.7452555894851685,0.182648703455925
1773231966920754700,19.510754638671877,-2.682920217514038,-0.8460483551025391,0.192422553896904
1773231966936743400,19.526743408203124,-2.822808265686035,-0.8558222055435181,0.2528982162475586
1773231966948736500,19.538736572265623,-2.858238458633423,-0.788627028465271,0.30115658044815063
1773231966964727800,19.554727783203123,-2.7965409755706787,-0.6438519954681396,0.3286454975605011
1773231966980749800,19.570749755859374,-2.687807083129883,-0.4758640229701996,0.29016098380088806
1773231966996741400,19.586741455078126,-2.648711681365967,-0.3549126982688904,0.20891591906547546
1773231967012732700,19.602732666015626,-2.688417911529541,-0.28099802136421204,0.1411098688840866
1773231967028725200,19.618725341796875,-2.7592782974243164,-0.26511552929878235,0.08429940044879913
1773231967044745000,19.634744873046873,-2.8148670196533203,-0.3029891550540924,0.031154127791523933
1773231967060737300,19.6507373046875,-2.7879889011383057,-0.3286454975605011,0.021380282938480377
1773231967076727000,19.66672705078125,-2.6810874938964844,-0.35185837745666504,0.007941247895359993
1773231967092750300,19.682750244140625,-2.5534167289733887,-0.37751471996307373,-0.028099801391363144
1773231967108739600,19.698739501953124,-2.417804718017578,-0.43676865100860596,-0.07391469180583954
1773231967124733000,19.71473291015625,-2.263866662979126,-0.49235737323760986,-0.10262536257505417
1773231967140723200,19.73072314453125,-2.0537290573120117,-0.48380526900291443,-0.06963863968849182
1773231967156744000,19.746743896484375,-1.8008307218551636,-0.394618958234787,0.02076941914856434
1773231967172738000,19.762738037109376,-1.5234979391098022,-0.24556782841682434,0.15577064454555511
1773231967188726500,19.7787265625,-1.2272282838821411,0.016493361443281174,0.3640756905078888
1773231967204749300,19.794749267578126,-0.9578366875648499,0.3585779070854187,0.608421802520752
1773231967220740900,19.810740966796875,-0.6805039048194885,0.6548475623130798,0.8051204085350037
1773231967236730600,19.826730712890626,-0.34636059403419495,0.8857545852661133,0.8967501521110535
1773231967252724500,19.842724365234375,0.07391469180583954,0.9077457785606384,0.8906415104866028
1773231967268745000,19.858744873046874,0.5534439086914062,0.7367035150527954,0.8503243923187256
1773231967284737800,19.87473779296875,0.9999864101409912,0.5937610268592834,0.7617489695549011
1773231967300727000,19.89072705078125,1.4104878902435303,0.5705481171607971,0.5076290369033813
