time,seconds_elapsed,z,y,x
1773231947708659700,0.29865966796875,-16.440000534057617,-16.31999969482422,1.2599999904632568
1773231947724728300,0.314728271484375,-25.139999389648438,-23.279998779296875,-7.199999809265137
1773231947740718000,0.330718017578125,-33.65999984741211,-30.959999084472656,-15.65999984741211
1773231947756740900,0.346740966796875,-33.119998931884766,-31.079999923706055,-15.420000076293945
1773231947772730400,0.36273046875,-32.39999771118164,-30.479999542236328,-15.299999237060547
1773231947788738600,0.378738525390625,-32.34000015258789,-31.260000228881836,-15.299999237060547
1773231947804714200,0.39471435546875,-32.63999938964844,-31.619998931884766,-15.299999237060547
1773231947820736500,0.410736572265625,-32.39999771118164,-31.739999771118164,-15.65999984741211
1773231947836728300,0.426728271484375,-32.099998474121094,-31.67999839782715,-15.779999732971191
1773231947852720000,0.44272021484375,-32.21999740600586,-31.19999885559082,-15.960000038146973
1773231947868739000,0.458739013671875,-32.34000015258789,-31.3799991607666,-16.079999923706055
1773231947884732700,0.474732666015625,-32.21999740600586,-31.139999389648438,-15.960000038146973
1773231947900723700,0.4907236328125,-31.559999465942383,-31.139999389648438,-16.260000228881836
1773231947916714800,0.50671484375,-31.079999923706055,-31.619998931884766,-16.559999465942383
1773231947932737000,0.522737060546875,-31.67999839782715,-31.559999465942383,-16.3799991607666
1773231947948728000,0.53872802734375,-32.040000915527344,-31.67999839782715,-15.539999961853027
1773231947964717300,0.55471728515625,-31.979999542236328,-31.439998626708984,-15.179999351501465
1773231947980740600,0.57074072265625,-31.85999870300293,-30.53999900817871,-15.299999237060547
1773231947996729600,0.5867294921875,-31.5,-31.260000228881836,-14.819999694824219
1773231948012724000,0.602723876953125,-31.439998626708984,-31.619998931884766,-15
1773231948028713700,0.618713623046875,-31.439998626708984,-31.19999885559082,-15.119999885559082
1773231948044734500,0.634734375,-31.799999237060547,-30.65999984741211,-14.819999694824219
1773231948060726500,0.6507265625,-32.099998474121094,-30.299999237060547,-14.579999923706055
1773231948076718600,0.666718505859375,-31.3799991607666,-30.35999870300293,-14.75999927520752
1773231948092740900,0.682740966796875,-31.19999885559082,-30.959999084472656,-15.179999351501465
1773231948108731600,0.698731689453125,-31.85999870300293,-31.619998931884766,-14.639999389648438
1773231948124720600,0.714720703125,-32.040000915527344,-30.899999618530273,-14.34000015258789
1773231948140713200,0.730713134765625,-31.5,-30.35999870300293,-14.819999694824219
1773231948156734700,0.746734619140625,-31.079999923706055,-30.719999313354492,-15.179999351501465
1773231948172727600,0.7627275390625,-30.65999984741211,-31.260000228881836,-15.359999656677246
1773231948188718000,0.778718017578125,-30.299999237060547,-31.079999923706055,-15
1773231948204738000,0.794738037109375,-29.8799991607666,-31.85999870300293,-14.699999809265137
1773231948220729000,0.81072900390625,-29.81999969482422,-32.52000045776367,-14.819999694824219
1773231948236721400,0.826721435546875,-29.939998626708984,-32.34000015258789,-14.880000114440918
1773231948252714200,0.84271435546875,-29.69999885559082,-31.739999771118164,-14.09999942779541
1773231948268734700,0.858734619140625,-29.8799991607666,-31.31999969482422,-13.619999885559082
1773231948284724200,0.87472412109375,-28.85999870300293,-32.15999984741211,-14.15999984741211
1773231948300717600,0.890717529296875,-27.959999084472656,-32.21999740600586,-14.039999961853027
1773231948316737000,0.906737060546875,-28.139999389648438,-32.63999938964844,-13.559999465942383
1773231948332731100,0.922731201171875,-27.719999313354492,-34.2599983215332,-13.739999771118164
1773231948348722000,0.938721923828125,-27.119998931884766,-34.31999969482422,-13.139999389648438
1773231948364741600,0.95474169921875,-26.579999923706055,-34.13999938964844,-12
1773231948380734200,0.970734130859375,-26.579999923706055,-34.13999938964844,-11.699999809265137
1773231948396724500,0.986724365234375,-26.279998779296875,-34.02000045776367,-11.639999389648438
1773231948412717800,1.0027177734375,-26.8799991607666,-34.97999954223633,-11.519999504089355
1773231948428738600,1.018738525390625,-27.239999771118164,-34.79999923706055,-10.859999656677246
1773231948444730000,1.034730224609375,-26.51999855041504,-33.84000015258789,-10.019999504089355
1773231948460721000,1.050720947265625,-27.059999465942383,-33.23999786376953,-9.84000015258789
1773231948476710100,1.066710205078125,-27.899999618530273,-33.119998931884766,-11.039999961853027
1773231948492733400,1.0827333984375,-27.899999618530273,-33.05999755859375,-11.460000038146973
1773231948508725200,1.098725341796875,-27.84000015258789,-33.05999755859375,-11.819999694824219
1773231948524715500,1.114715576171875,-27.899999618530273,-32.39999771118164,-12.899999618530273
1773231948540738300,1.13073828125,-27.779998779296875,-31.85999870300293,-13.079999923706055
1773231948556727600,1.1467275390625,-28.5,-31.559999465942383,-13.4399995803833
1773231948572722200,1.16272216796875,-28.739999771118164,-30.53999900817871,-14.34000015258789
1773231948588741400,1.178741455078125,-28.559999465942383,-30.239999771118164,-14.399999618530273
1773231948604732200,1.194732177734375,-28.799999237060547,-29.939998626708984,-13.920000076293945
1773231948620725000,1.21072509765625,-29.03999900817871,-29.219999313354492,-13.739999771118164
1773231948636714000,1.2267138671875,-29.51999855041504,-29.459999084472656,-13.859999656677246
1773231948652739000,1.242739013671875,-29.81999969482422,-29.399999618530273,-13.920000076293945
1773231948668728800,1.258728759765625,-29.03999900817871,-29.099998474121094,-13.619999885559082
1773231948684719900,1.274719970703125,-28.619998931884766,-29.8799991607666,-13.4399995803833
1773231948700740400,1.290740234375,-28.920000076293945,-30.17999839782715,-13.5
1773231948716731600,1.306731689453125,-28.799999237060547,-30.239999771118164,-13.559999465942383
1773231948732725500,1.3227255859375,-28.5,-30.299999237060547,-13.25999927520752
1773231948748716500,1.338716552734375,-28.139999389648438,-30.059999465942383,-13.019999504089355
1773231948764735200,1.3547353515625,-27.959999084472656,-29.81999969482422,-13.079999923706055
1773231948780728600,1.370728515625,-28.19999885559082,-30.17999839782715,-13.619999885559082
1773231948796717600,1.386717529296875,-27.899999618530273,-30.53999900817871,-13.979999542236328
1773231948812742100,1.4027421875,-27.84000015258789,-29.8799991607666,-13.679999351501465
1773231948828732200,1.418732177734375,-27.779998779296875,-28.979999542236328,-14.279999732971191
1773231948844736300,1.434736328125,-27.959999084472656,-28.799999237060547,-14.699999809265137
1773231948860713500,1.45071337890625,-27.899999618530273,-29.760000228881836,-14.579999923706055
1773231948876735500,1.466735595703125,-26.8799991607666,-30.17999839782715,-14.75999927520752
1773231948892728600,1.482728515625,-26.15999984741211,-29.639999389648438,-15.479999542236328
1773231948908719000,1.498718994140625,-26.34000015258789,-29.51999855041504,-15.479999542236328
1773231948924740900,1.514740966796875,-27,-29.639999389648438,-15
1773231948940732200,1.530732177734375,-26.69999885559082,-29.279998779296875,-14.639999389648438
1773231948956723700,1.5467236328125,-26.099998474121094,-29.51999855041504,-15.059999465942383
1773231948972715300,1.56271533203125,-25.5,-29.51999855041504,-15.960000038146973
1773231948988737300,1.5787373046875,-24.959999084472656,-29.51999855041504,-15.539999961853027
1773231949004726300,1.594726318359375,-24.239999771118164,-29.8799991607666,-15.65999984741211
1773231949020718800,1.61071875,-24.35999870300293,-30.119998931884766,-15.839999198913574
1773231949036740000,1.626739990234375,-24.84000015258789,-30.299999237060547,-15.479999542236328
1773231949052730000,1.642730224609375,-24.959999084472656,-29.939998626708984,-16.079999923706055
1773231949068721700,1.6587216796875,-25.439998626708984,-29.81999969482422,-16.079999923706055
1773231949084714500,1.674714599609375,-25.19999885559082,-29.399999618530273,-16.139999389648438
1773231949100736000,1.690736083984375,-24.84000015258789,-29.219999313354492,-16.3799991607666
1773231949116727000,1.70672705078125,-25.139999389648438,-29.099998474121094,-16.68000030517578
1773231949132719600,1.7227197265625,-25.19999885559082,-28.139999389648438,-16.979999542236328
1773231949148738800,1.73873876953125,-24.059999465942383,-27.779998779296875,-17.100000381469727
1773231949164731000,1.75473095703125,-23.459999084472656,-28.979999542236328,-17.219999313354492
1773231949180722400,1.770722412109375,-24.059999465942383,-29.34000015258789,-16.85999870300293
1773231949196713500,1.78671337890625,-23.81999969482422,-28.920000076293945,-17.100000381469727
1773231949212736000,1.802736083984375,-23.219999313354492,-28.739999771118164,-17.399999618530273
1773231949228727800,1.818727783203125,-23.15999984741211,-27.959999084472656,-16.85999870300293
1773231949244719400,1.83471923828125,-23.219999313354492,-27.84000015258789,-16.68000030517578
1773231949260739300,1.8507392578125,-23.939998626708984,-28.979999542236328,-16.619998931884766
1773231949276728800,1.866728759765625,-24,-29.579999923706055,-16.31999969482422
1773231949292722400,1.882722412109375,-23.939998626708984,-29.399999618530273,-16.020000457763672
1773231949308741400,1.898741455078125,-24.84000015258789,-28.68000030517578,-16.079999923706055
1773231949324733000,1.91473291015625,-24.53999900817871,-28.139999389648438,-15.779999732971191
1773231949340724200,1.93072412109375,-23.459999084472656,-28.19999885559082,-15.59999942779541
1773231949356716800,1.946716796875,-23.8799991607666,-28.5,-15.420000076293945
1773231949372740000,1.962739990234375,-24,-28.3799991607666,-14.9399995803833
1773231949388728600,1.978728515625,-23.279998779296875,-27.65999984741211,-15.420000076293945
1773231949404719600,1.9947197265625,-23.579999923706055,-27.35999870300293,-15.359999656677246
1773231949420711200,2.010711181640625,-24.059999465942383,-27.65999984741211,-15.299999237060547
1773231949436732700,2.026732666015625,-24,-27.420000076293945,-15.59999942779541
1773231949452726000,2.04272607421875,-23.15999984741211,-27.119998931884766,-15.539999961853027
1773231949468716300,2.05871630859375,-23.03999900817871,-27.719999313354492,-15.779999732971191
1773231949484736800,2.07473681640625,-23.03999900817871,-27.779998779296875,-15.479999542236328
1773231949500729600,2.0907294921875,-22.85999870300293,-27.239999771118164,-15
1773231949516720600,2.106720703125,-23.219999313354492,-27,-14.699999809265137
1773231949532713000,2.122712890625,-23.69999885559082,-27.65999984741211,-14.75999927520752
1773231949548734000,2.13873388671875,-24.059999465942383,-27.35999870300293,-14.75999927520752
1773231949564723000,2.154722900390625,-23.399999618530273,-26.8799991607666,-14.75999927520752
1773231949580716300,2.17071630859375,-22.799999237060547,-26.8799991607666,-15.119999885559082
1773231949596738000,2.186738037109375,-23.399999618530273,-26.279998779296875,-15.239999771118164
1773231949612729300,2.202729248046875,-23.34000015258789,-26.579999923706055,-15.420000076293945
1773231949628717800,2.2187177734375,-22.559999465942383,-26.459999084472656,-15.239999771118164
1773231949644741400,2.234741455078125,-22.5,-26.399999618530273,-15.059999465942383
1773231949660733400,2.2507333984375,-22.19999885559082,-26.81999969482422,-15.299999237060547
1773231949676724700,2.266724853515625,-22.19999885559082,-26.639999389648438,-15
1773231949692716500,2.282716552734375,-23.15999984741211,-26.459999084472656,-14.460000038146973
1773231949708737500,2.298737548828125,-23.279998779296875,-26.399999618530273,-14.460000038146973
1773231949724728800,2.314728759765625,-22.799999237060547,-25.920000076293945,-14.639999389648438
1773231949740719900,2.330719970703125,-22.5,-25.68000030517578,-14.75999927520752
1773231949756740000,2.346739990234375,-22.68000030517578,-25.439998626708984,-15.059999465942383
1773231949772733700,2.362733642578125,-22.5,-25.01999855041504,-14.639999389648438
1773231949788721700,2.3787216796875,-21.959999084472656,-25.439998626708984,-13.739999771118164
1773231949804715300,2.39471533203125,-22.3799991607666,-25.01999855041504,-14.579999923706055
1773231949820736500,2.410736572265625,-22.260000228881836,-24.779998779296875,-15.479999542236328
1773231949836726800,2.426726806640625,-21.899999618530273,-25.559999465942383,-14.639999389648438
1773231949852718800,2.44271875,-22.19999885559082,-25.85999870300293,-14.34000015258789
1773231949868740900,2.458740966796875,-21.84000015258789,-25.68000030517578,-14.75999927520752
1773231949884731400,2.4747314453125,-21.53999900817871,-25.139999389648438,-15.239999771118164
1773231949900721700,2.4907216796875,-21.84000015258789,-25.260000228881836,-15.059999465942383
1773231949916713700,2.506713623046875,-21.899999618530273,-25.01999855041504,-15.299999237060547
1773231949932737800,2.52273779296875,-21.059999465942383,-24.84000015258789,-15.539999961853027
1773231949948727300,2.538727294921875,-20.639999389648438,-25.3799991607666,-15.539999961853027
1773231949964717600,2.554717529296875,-20.8799991607666,-25.3799991607666,-15.59999942779541
1773231949980740900,2.570740966796875,-21,-25.559999465942383,-15.899999618530273
1773231949996730600,2.586730712890625,-20.760000228881836,-25.619998931884766,-16.139999389648438
1773231950012723500,2.602723388671875,-20.34000015258789,-24.959999084472656,-15.539999961853027
1773231950028713700,2.618713623046875,-20.639999389648438,-25.139999389648438,-15.359999656677246
1773231950044736000,2.634736083984375,-21.059999465942383,-24.779998779296875,-15.359999656677246
1773231950060725500,2.6507255859375,-21,-24.420000076293945,-15.839999198913574
1773231950076716300,2.66671630859375,-21.18000030517578,-24.779998779296875,-15.539999961853027
1773231950092741400,2.682741455078125,-21.65999984741211,-25.079999923706055,-14.579999923706055
1773231950108731100,2.698731201171875,-21.059999465942383,-25.139999389648438,-14.880000114440918
1773231950124724000,2.714723876953125,-20.639999389648438,-24.84000015258789,-14.579999923706055
1773231950140712400,2.73071240234375,-20.939998626708984,-25.139999389648438,-13.979999542236328
1773231950156735000,2.74673486328125,-20.459999084472656,-25.01999855041504,-14.279999732971191
1773231950172726500,2.7627265625,-19.799999237060547,-24.779998779296875,-14.34000015258789
1773231950188718000,2.778718017578125,-19.3799991607666,-25.920000076293945,-14.639999389648438
1773231950204739300,2.7947392578125,-19.260000228881836,-26.099998474121094,-14.519999504089355
1773231950220730600,2.810730712890625,-19.079999923706055,-25.439998626708984,-14.279999732971191
1773231950236720600,2.826720703125,-18.059999465942383,-25.920000076293945,-14.039999961853027
1773231950252715000,2.842715087890625,-17.940000534057617,-25.85999870300293,-13.559999465942383
1773231950268735200,2.8587353515625,-18.119998931884766,-26.099998474121094,-13.199999809265137
1773231950284724200,2.87472412109375,-18.239999771118164,-26.51999855041504,-12.539999961853027
1773231950300717800,2.8907177734375,-18.84000015258789,-26.399999618530273,-12.84000015258789
1773231950316738800,2.90673876953125,-18.84000015258789,-26.69999885559082,-13.4399995803833
1773231950332730000,2.922730224609375,-18.18000030517578,-26.939998626708984,-12.719999313354492
1773231950348719900,2.938719970703125,-17.639999389648438,-26.939998626708984,-12.420000076293945
1773231950364713200,2.954713134765625,-17.34000015258789,-26.760000228881836,-12
1773231950380733700,2.970733642578125,-18,-26.579999923706055,-11.880000114440918
1773231950396725800,2.986725830078125,-18.479999542236328,-26.279998779296875,-11.399999618530273
1773231950412717800,3.0027177734375,-18.059999465942383,-26.099998474121094,-10.679999351501465
1773231950428738300,3.01873828125,-18,-25.619998931884766,-11.579999923706055
1773231950444728000,3.03472802734375,-17.459999084472656,-26.099998474121094,-11.219999313354492
1773231950460721200,3.05072119140625,-17.639999389648438,-27.239999771118164,-9.719999313354492
1773231950476743000,3.066742919921875,-18.420000076293945,-27.059999465942383,-9.479999542236328
1773231950492735000,3.08273486328125,-18.779998779296875,-27.299999237060547,-9.899999618530273
1773231950508725500,3.0987255859375,-18.899999618530273,-27.239999771118164,-9.119999885559082
1773231950524716500,3.114716552734375,-19.020000457763672,-26.579999923706055,-8.760000228881836
1773231950540736500,3.130736572265625,-18.719999313354492,-26.459999084472656,-8.09999942779541
1773231950556729300,3.146729248046875,-18.899999618530273,-27.059999465942383,-6.779999732971191
1773231950572721400,3.162721435546875,-19.68000030517578,-27.53999900817871,-7.199999809265137
1773231950588740400,3.178740234375,-19.619998931884766,-27.53999900817871,-7.319999694824219
1773231950604732200,3.194732177734375,-19.31999969482422,-26.579999923706055,-6.179999828338623
1773231950620724700,3.210724853515625,-18.719999313354492,-26.81999969482422,-3.8999998569488525
1773231950636716000,3.226716064453125,-19.139999389648438,-27.779998779296875,-2.3999998569488525
1773231950652738600,3.242738525390625,-18.479999542236328,-27.65999984741211,-1.5
1773231950668730000,3.258730224609375,-17.639999389648438,-27.059999465942383,-0.8999999761581421
1773231950684720400,3.274720458984375,-17.940000534057617,-27.65999984741211,0.11999999731779099
1773231950700742000,3.290741943359375,-17.279998779296875,-27.719999313354492,1.5
1773231950716733200,3.306733154296875,-16.799999237060547,-27.18000030517578,3.299999952316284
1773231950732725200,3.322725341796875,-17.219999313354492,-26.34000015258789,5.699999809265137
1773231950748715500,3.338715576171875,-17.459999084472656,-25.799999237060547,7.559999942779541
1773231950764736800,3.35473681640625,-17.81999969482422,-25.19999885559082,9.119999885559082
1773231950780726800,3.370726806640625,-17.399999618530273,-23.81999969482422,10.380000114440918
1773231950796718600,3.386718505859375,-18.239999771118164,-22.979999542236328,11.519999504089355
1773231950812742000,3.402741943359375,-18.35999870300293,-21.479999542236328,13.199999809265137
1773231950828732200,3.418732177734375,-17.219999313354492,-19.31999969482422,14.819999694824219
1773231950844721700,3.4347216796875,-17.520000457763672,-18.239999771118164,16.920000076293945
1773231950860715000,3.450715087890625,-16.85999870300293,-17.15999984741211,18.84000015258789
1773231950876736800,3.46673681640625,-15.719999313354492,-15.899999618530273,20.760000228881836
1773231950892727800,3.482727783203125,-14.699999809265137,-14.279999732971191,22.139999389648438
1773231950908720600,3.498720703125,-13.4399995803833,-11.9399995803833,23.15999984741211
1773231950924740900,3.514740966796875,-13.25999927520752,-9.779999732971191,25.01999855041504
1773231950940732200,3.530732177734375,-12.899999618530273,-7.980000019073486,26.279998779296875
1773231950956722700,3.54672265625,-12.300000190734863,-6.239999771118164,26.639999389648438
1773231950972716000,3.562716064453125,-11.579999923706055,-4.199999809265137,26.760000228881836
1773231950988737300,3.5787373046875,-10.260000228881836,-2.3399999141693115,27
1773231951004727600,3.5947275390625,-10.079999923706055,-1.3199999332427979,27.719999313354492
1773231951020718800,3.61071875,-10.079999923706055,-0.7199999690055847,28.5
1773231951036738000,3.626738037109375,-10.139999389648438,0.8399999737739563,28.139999389648438
1773231951052732200,3.642732177734375,-10.619999885559082,1.6799999475479126,27.959999084472656
1773231951068722700,3.65872265625,-10.5,1.8600000143051147,28.31999969482422
1773231951084713700,3.674713623046875,-10.380000114440918,2.1599998474121094,27.899999618530273
1773231951100733700,3.690733642578125,-10.800000190734863,3.4800000190734863,27.239999771118164
1773231951116726800,3.706726806640625,-11.15999984741211,4.920000076293945,26.51999855041504
1773231951132718600,3.722718505859375,-11.039999961853027,4.440000057220459,26.760000228881836
1773231951148740000,3.738739990234375,-10.920000076293945,5.039999961853027,27.420000076293945
1773231951164729000,3.75472900390625,-11.579999923706055,6.179999828338623,27.059999465942383
1773231951180720400,3.770720458984375,-11.819999694824219,6.71999979019165,26.8799991607666
1773231951196713500,3.78671337890625,-11.399999618530273,7.199999809265137,26.579999923706055
1773231951212736000,3.802736083984375,-10.859999656677246,6.839999675750732,26.459999084472656
1773231951228727600,3.8187275390625,-11.279999732971191,6.960000038146973,26.639999389648438
1773231951244717800,3.8347177734375,-11.880000114440918,7.259999752044678,26.399999618530273
1773231951260738800,3.85073876953125,-11.819999694824219,7.319999694824219,26.760000228881836
1773231951276728800,3.866728759765625,-12.719999313354492,7.319999694824219,27.059999465942383
1773231951292722700,3.88272265625,-13.559999465942383,6.599999904632568,27
1773231951308713200,3.898713134765625,-13.380000114440918,6.059999942779541,26.69999885559082
1773231951324734700,3.914734619140625,-13.4399995803833,5.699999809265137,26.219999313354492
1773231951340726000,3.93072607421875,-13.920000076293945,4.319999694824219,26.099998474121094
1773231951356715000,3.946715087890625,-13.380000114440918,2.759999990463257,25.979999542236328
1773231951372739000,3.962739013671875,-12.779999732971191,0.7799999713897705,26.8799991607666
1773231951388731000,3.97873095703125,-13.25999927520752,-1.7400000095367432,27.239999771118164
1773231951404719400,3.99471923828125,-13.559999465942383,-3.059999942779541,26.219999313354492
1773231951420713200,4.010713134765625,-13.25999927520752,-5.159999847412109,25.619998931884766
1773231951436734500,4.026734375,-13.319999694824219,-7.619999885559082,25.3799991607666
1773231951452724700,4.042724853515625,-14.039999961853027,-9.719999313354492,24.779998779296875
1773231951468714800,4.05871484375,-14.039999961853027,-11.579999923706055,23.939998626708984
1773231951484738300,4.07473828125,-14.219999313354492,-13.4399995803833,23.51999855041504
1773231951500729000,4.09072900390625,-14.09999942779541,-15.539999961853027,21.719999313354492
1773231951516721000,4.106720947265625,-13.799999237060547,-17.69999885559082,20.520000457763672
1773231951532743400,4.122743408203125,-13.920000076293945,-19.439998626708984,19.799999237060547
1773231951548734200,4.138734130859375,-12.960000038146973,-21.059999465942383,18.420000076293945
1773231951564723500,4.154723388671875,-12.420000076293945,-22.68000030517578,17.399999618530273
1773231951580716800,4.170716796875,-12.59999942779541,-24,16.559999465942383
1773231951596738000,4.186738037109375,-12.65999984741211,-24.899999618530273,15.65999984741211
1773231951612730000,4.202730224609375,-11.9399995803833,-25.739999771118164,14.399999618530273
1773231951628721000,4.218720947265625,-11.460000038146973,-26.639999389648438,14.219999313354492
1773231951644741000,4.2347412109375,-11.399999618530273,-26.939998626708984,13.679999351501465
1773231951660731600,4.250731689453125,-10.859999656677246,-26.639999389648438,12.960000038146973
1773231951676723200,4.26672314453125,-10.5,-26.69999885559082,14.15999984741211
1773231951692716300,4.28271630859375,-10.260000228881836,-27.599998474121094,14.880000114440918
1773231951708737300,4.2987373046875,-9.539999961853027,-27.18000030517578,14.15999984741211
1773231951724728000,4.31472802734375,-9.65999984741211,-26.399999618530273,13.799999237060547
1773231951740720000,4.33072021484375,-10.319999694824219,-25.85999870300293,14.880000114440918
1773231951756741400,4.346741455078125,-10.079999923706055,-25.01999855041504,16.619998931884766
1773231951772733700,4.362733642578125,-10.4399995803833,-24.479999542236328,17.34000015258789
1773231951788722700,4.37872265625,-10.619999885559082,-23.279998779296875,18
1773231951804715800,4.3947158203125,-9.899999618530273,-21.84000015258789,18.959999084472656
1773231951820736800,4.41073681640625,-10.559999465942383,-20.81999969482422,20.399999618530273
1773231951836726500,4.4267265625,-11.15999984741211,-19.3799991607666,22.559999465942383
1773231951852720400,4.442720458984375,-10.260000228881836,-17.279998779296875,23.81999969482422
1773231951868741600,4.45874169921875,-10.679999351501465,-14.880000114440918,24.600000381469727
1773231951884731400,4.4747314453125,-11.09999942779541,-12.960000038146973,25.559999465942383
1773231951900723500,4.490723388671875,-11.399999618530273,-11.579999923706055,25.68000030517578
1773231951916712400,4.50671240234375,-12.539999961853027,-10.800000190734863,25.85999870300293
1773231951932737300,4.5227373046875,-12.479999542236328,-9.119999885559082,27.420000076293945
1773231951948726300,4.538726318359375,-11.279999732971191,-7.019999980926514,28.559999465942383
1773231951964718800,4.55471875,-10.380000114440918,-5.87999963760376,28.139999389648438
1773231951980739600,4.570739501953125,-10.139999389648438,-4.679999828338623,28.01999855041504
1773231951996729600,4.5867294921875,-10.079999923706055,-3.240000009536743,28.799999237060547
1773231952012724500,4.602724365234375,-10.859999656677246,-2.1599998474121094,29.03999900817871
1773231952028713700,4.618713623046875,-11.09999942779541,-0.6599999666213989,29.219999313354492
1773231952044736800,4.63473681640625,-10.380000114440918,1.0199999809265137,29.15999984741211
1773231952060727600,4.6507275390625,-10.559999465942383,2.3999998569488525,28.920000076293945
1773231952076716000,4.666716064453125,-10.619999885559082,4.440000057220459,28.979999542236328
1773231952092740900,4.682740966796875,-10.019999504089355,6.239999771118164,28.920000076293945
1773231952108731000,4.69873095703125,-9.719999313354492,6.839999675750732,28.5
1773231952124722200,4.71472216796875,-9.719999313354492,7.5,28.19999885559082
1773231952140713700,4.730713623046875,-9.84000015258789,8.639999389648438,28.01999855041504
1773231952156735200,4.7467353515625,-9.59999942779541,9.779999732971191,28.19999885559082
1773231952172728600,4.762728515625,-9.179999351501465,10.920000076293945,27.959999084472656
1773231952188716300,4.77871630859375,-9.420000076293945,11.75999927520752,27.18000030517578
1773231952204739800,4.79473974609375,-9.059999465942383,12.539999961853027,27
1773231952220732200,4.810732177734375,-8.519999504089355,13.739999771118164,27
1773231952236723000,4.826722900390625,-8.760000228881836,14.15999984741211,27.299999237060547
1773231952252743400,4.842743408203125,-9.300000190734863,13.799999237060547,26.81999969482422
1773231952268733700,4.858733642578125,-9.359999656677246,14.219999313354492,26.279998779296875
1773231952284726300,4.874726318359375,-8.819999694824219,14.519999504089355,26.579999923706055
1773231952300715300,4.89071533203125,-9.179999351501465,14.279999732971191,27.53999900817871
1773231952316737800,4.90673779296875,-9.119999885559082,13.799999237060547,27.899999618530273
1773231952332731400,4.9227314453125,-9.300000190734863,12.899999618530273,27.53999900817871
1773231952348723200,4.93872314453125,-10.139999389648438,11.75999927520752,27.479999542236328
1773231952364712700,4.954712646484375,-10.199999809265137,10.019999504089355,28.619998931884766
1773231952380734200,4.970734130859375,-11.039999961853027,8.039999961853027,29.51999855041504
1773231952396723700,4.9867236328125,-11.880000114440918,6.779999732971191,29.51999855041504
1773231952412717600,5.002717529296875,-12.420000076293945,5.21999979019165,30
1773231952428738600,5.018738525390625,-13.019999504089355,3,30.479999542236328
1773231952444729900,5.034729736328125,-12.960000038146973,0.8999999761581421,30.059999465942383
1773231952460721000,5.050720947265625,-13.5,-1.8600000143051147,29.81999969482422
1773231952476741600,5.06674169921875,-14.09999942779541,-4.5,29.81999969482422
1773231952492733400,5.0827333984375,-14.219999313354492,-6.779999732971191,29.15999984741211
1773231952508723700,5.0987236328125,-13.859999656677246,-9.779999732971191,28.19999885559082
1773231952524716500,5.114716552734375,-13.859999656677246,-12.719999313354492,27.479999542236328
1773231952540738000,5.130738037109375,-14.039999961853027,-15.059999465942383,26.579999923706055
1773231952556728000,5.14672802734375,-13.199999809265137,-16.5,25.979999542236328
1773231952572721000,5.162720947265625,-12.84000015258789,-18,25.739999771118164
1773231952588743200,5.1787431640625,-12.300000190734863,-20.15999984741211,24.600000381469727
1773231952604733200,5.194733154296875,-11.460000038146973,-21.65999984741211,23.279998779296875
1773231952620725800,5.210725830078125,-10.679999351501465,-23.219999313354492,22.3799991607666
1773231952636716300,5.22671630859375,-9.960000038146973,-24.84000015258789,21.479999542236328
1773231952652738800,5.24273876953125,-9.719999313354492,-25.01999855041504,21.18000030517578
1773231952668729900,5.258729736328125,-9.899999618530273,-24.959999084472656,21.420000076293945
1773231952684718600,5.274718505859375,-9.539999961853027,-25.619998931884766,21.119998931884766
1773231952700740600,5.29074072265625,-8.639999389648438,-25.920000076293945,20.760000228881836
1773231952716732700,5.306732666015625,-8.279999732971191,-26.34000015258789,20.520000457763672
1773231952732726000,5.32272607421875,-7.980000019073486,-26.51999855041504,21.239999771118164
1773231952748714800,5.33871484375,-7.019999980926514,-25.19999885559082,22.079999923706055
1773231952764736800,5.35473681640625,-7.139999866485596,-23.939998626708984,22.559999465942383
1773231952780728000,5.37072802734375,-8.220000267028809,-23.639999389648438,23.51999855041504
1773231952796718800,5.38671875,-8.880000114440918,-22.619998931884766,24.600000381469727
1773231952812742400,5.402742431640625,-8.220000267028809,-21.119998931884766,25.979999542236328
1773231952828731400,5.4187314453125,-8.15999984741211,-19.619998931884766,27.420000076293945
1773231952844723000,5.434722900390625,-8.9399995803833,-18.059999465942383,28.3799991607666
1773231952860715000,5.450715087890625,-8.880000114440918,-16.31999969482422,28.619998931884766
1773231952876736300,5.466736328125,-9.300000190734863,-14.579999923706055,29.099998474121094
1773231952892728300,5.482728271484375,-10.079999923706055,-13.019999504089355,29.81999969482422
1773231952908717000,5.498717041015625,-10.260000228881836,-11.639999389648438,30
1773231952924740400,5.514740234375,-9.539999961853027,-10.739999771118164,30.53999900817871
1773231952940732000,5.53073193359375,-9.119999885559082,-8.880000114440918,31.01999855041504
1773231952956124000,5.5461240234375,-9,-7.37999963760376,31.439998626708984
1773231952972653000,5.562653076171875,-9.059999465942383,-6,31.85999870300293
1773231952988357000,5.578357177734375,-9.359999656677246,-3.7799999713897705,32.099998474121094
1773231953004664600,5.59466455078125,-10.079999923706055,-2.3999998569488525,32.7599983215332
1773231953020655900,5.61065576171875,-9.59999942779541,-1.6799999475479126,32.70000076293945
1773231953036676600,5.626676513671875,-10.019999504089355,-0.11999999731779099,32.880001068115234
1773231953052669700,5.642669677734375,-10.559999465942383,2.0999999046325684,33.119998931884766
1773231953068675000,5.658675048828125,-10.619999885559082,3.9599997997283936,32.81999969482422
1773231953084651300,5.6746513671875,-11.399999618530273,5.159999847412109,32.57999801635742
1773231953100670700,5.690670654296875,-11.579999923706055,6.119999885559082,31.619998931884766
1773231953116664600,5.70666455078125,-11.399999618530273,7.679999828338623,31.439998626708984
1773231953132655600,5.722655517578125,-11.15999984741211,9.059999465942383,31.01999855041504
1773231953148675600,5.738675537109375,-11.399999618530273,9.960000038146973,30.65999984741211
1773231953164668200,5.754668212890625,-11.75999927520752,11.699999809265137,30.899999618530273
1773231953180659700,5.77065966796875,-12.059999465942383,12.960000038146973,30.119998931884766
1773231953196648400,5.7866484375,-11.579999923706055,13.979999542236328,29.51999855041504
1773231953212671700,5.802671630859375,-12.059999465942383,15,29.219999313354492
1773231953228662500,5.81866259765625,-12.239999771118164,14.819999694824219,29.399999618530273
1773231953244654600,5.834654541015625,-11.15999984741211,15.059999465942383,29.639999389648438
1773231953260676000,5.850676025390625,-11.219999313354492,15.899999618530273,28.85999870300293
1773231953276666400,5.866666259765625,-11.460000038146973,16.079999923706055,28.3799991607666
1773231953292659700,5.88265966796875,-10.979999542236328,16.19999885559082,28.439998626708984
1773231953308650800,5.898650634765625,-10.5,15.65999984741211,29.03999900817871
1773231953324670200,5.914670166015625,-10.859999656677246,14.519999504089355,30.059999465942383
1773231953340661200,5.9306611328125,-10.619999885559082,13.25999927520752,30.599998474121094
1773231953356653800,5.94665380859375,-9.84000015258789,11.880000114440918,31.01999855041504
1773231953372676400,5.96267626953125,-9.779999732971191,10.979999542236328,31.799999237060547
1773231953388666600,5.97866650390625,-9.479999542236328,8.880000114440918,32.279998779296875
1773231953404658000,5.994657958984375,-8.880000114440918,7.079999923706055,32.939998626708984
1773231953420647200,6.010647216796875,-8.699999809265137,4.920000076293945,34.20000076293945
1773231953436668700,6.026668701171875,-8.880000114440918,1.8600000143051147,34.5
1773231953452662500,6.04266259765625,-8.699999809265137,0.17999999225139618,34.2599983215332
1773231953468653600,6.058653564453125,-8.639999389648438,-1.7400000095367432,34.68000030517578
1773231953484673000,6.074673095703125,-8.639999389648438,-4.380000114440918,34.5
1773231953500665300,6.090665283203125,-8.34000015258789,-7.079999923706055,34.31999969482422
1773231953516655000,6.106655029296875,-7.980000019073486,-9.059999465942383,34.02000045776367
1773231953532679000,6.122678955078125,-6.899999618530273,-11.819999694824219,33.65999984741211
1773231953548669000,6.1386689453125,-5.819999694824219,-13.739999771118164,33.05999755859375
1773231953564661000,6.154660888671875,-5.579999923706055,-14.9399995803833,32.52000045776367
1773231953580651800,6.17065185546875,-4.980000019073486,-17.15999984741211,32.57999801635742
1773231953596672000,6.186672119140625,-4.199999809265137,-19.020000457763672,31.67999839782715
1773231953612664300,6.202664306640625,-3.240000009536743,-20.639999389648438,30.53999900817871
1773231953628655900,6.21865576171875,-2.2799999713897705,-21.299999237060547,30.599998474121094
1773231953644676600,6.234676513671875,-1.4399999380111694,-22.19999885559082,30.479999542236328
1773231953660668200,6.250668212890625,-1.0199999809265137,-23.15999984741211,28.979999542236328
1773231953676658700,6.26665869140625,-0.6599999666213989,-23.219999313354492,28.559999465942383
1773231953692651300,6.2826513671875,0,-23.15999984741211,28.68000030517578
1773231953708673000,6.298673095703125,-0.11999999731779099,-23.639999389648438,29.639999389648438
1773231953724664300,6.314664306640625,0.41999998688697815,-23.51999855041504,30.479999542236328
1773231953740656600,6.33065673828125,1.559999942779541,-22.799999237060547,30.479999542236328
1773231953756676600,6.346676513671875,1.8600000143051147,-22.079999923706055,30.779998779296875
1773231953772667600,6.362667724609375,1.5,-21.059999465942383,30.719999313354492
1773231953788660200,6.37866015625,0.41999998688697815,-20.459999084472656,31.799999237060547
1773231953804650500,6.394650390625,0.05999999865889549,-19.020000457763672,32.880001068115234
1773231953820670500,6.41067041015625,-0.17999999225139618,-16.85999870300293,34.2599983215332
1773231953836661500,6.42666162109375,-0.7199999690055847,-14.880000114440918,35.099998474121094
1773231953852654800,6.44265478515625,-0.8399999737739563,-13.199999809265137,34.73999786376953
1773231953868674300,6.45867431640625,-1.559999942779541,-11.75999927520752,35.39999771118164
1773231953884666400,6.474666259765625,-2.3999998569488525,-10.4399995803833,35.7599983215332
1773231953900658400,6.490658447265625,-3.359999895095825,-9,35.939998626708984
1773231953916650200,6.506650146484375,-3.9599997997283936,-7.079999923706055,36.47999954223633
1773231953932671000,6.5226708984375,-4.199999809265137,-5.339999675750732,36.599998474121094
1773231953948662500,6.53866259765625,-4.559999942779541,-3.8999998569488525,36.47999954223633
1773231953964653800,6.55465380859375,-4.920000076293945,-1.9799998998641968,37.02000045776367
1773231953980674000,6.570674072265625,-5.279999732971191,-0.5999999642372131,37.380001068115234
1773231953996665600,6.58666552734375,-5.819999694824219,0.29999998211860657,36.89999771118164
1773231954012658700,6.60265869140625,-5.579999923706055,2.3399999141693115,37.13999938964844
1773231954028648400,6.6186484375,-5.159999847412109,4.319999694824219,36.959999084472656
1773231954044670700,6.634670654296875,-5.819999694824219,5.699999809265137,36.41999816894531
1773231954060662000,6.650662109375,-6.359999656677246,7.5,36
1773231954076653600,6.666653564453125,-6.059999942779541,9.59999942779541,36
1773231954092674600,6.682674560546875,-5.279999732971191,10.800000190734863,36
1773231954108664300,6.698664306640625,-5.87999963760376,12.539999961853027,35.099998474121094
1773231954124657200,6.7146572265625,-6.480000019073486,14.15999984741211,34.31999969482422
1773231954140678700,6.7306787109375,-6.480000019073486,16.260000228881836,33.71999740600586
1773231954156668700,6.746668701171875,-6.599999904632568,17.81999969482422,33.23999786376953
1773231954172661800,6.762661865234375,-5.940000057220459,18.420000076293945,32.57999801635742
1773231954188651300,6.7786513671875,-5.159999847412109,19.739999771118164,31.439998626708984
1773231954204674000,6.794674072265625,-4.980000019073486,20.939998626708984,31.19999885559082
1773231954220663800,6.810663818359375,-5.099999904632568,21.84000015258789,31.079999923706055
1773231954236655000,6.826655029296875,-5.159999847412109,22.3799991607666,31.079999923706055
1773231954252649200,6.842649169921875,-4.440000057220459,22.3799991607666,31.19999885559082
1773231954268668700,6.858668701171875,-4.679999828338623,22.19999885559082,31.139999389648438
1773231954284659500,6.874659423828125,-5.400000095367432,22.260000228881836,30.899999618530273
1773231954300651500,6.890651611328125,-4.739999771118164,22.020000457763672,30.899999618530273
1773231954316671500,6.90667138671875,-4.440000057220459,21.84000015258789,31.67999839782715
1773231954332665300,6.922665283203125,-4.380000114440918,20.639999389648438,32.39999771118164
1773231954348655400,6.9386552734375,-4.079999923706055,19.3799991607666,33.89999771118164
1773231954364677000,6.954677001953125,-3.7799999713897705,17.459999084472656,34.619998931884766
1773231954380668200,6.970668212890625,-3,15.719999313354492,35.34000015258789
1773231954396660700,6.98666064453125,-2.2200000286102295,14.75999927520752,36.05999755859375
1773231954412650500,7.002650390625,-2.5199999809265137,13.139999389648438,35.880001068115234
1773231954428671000,7.0186708984375,-1.9199999570846558,10.800000190734863,36.36000061035156
1773231954444663800,7.034663818359375,-1.8600000143051147,8.220000267028809,37.79999923706055
1773231954460654300,7.050654296875,-1.6799999475479126,5.87999963760376,38.7599983215332
1773231954476646400,7.066646484375,-0.8999999761581421,2.6399998664855957,39.18000030517578
1773231954492665900,7.082665771484375,-1.9199999570846558,-0.47999998927116394,39.65999984741211
1773231954508658400,7.098658447265625,-1.6200000047683716,-2.0399999618530273,39.05999755859375
1773231954524648000,7.11464794921875,-1.0799999237060547,-4.980000019073486,38.939998626708984
1773231954540671500,7.13067138671875,-1.0199999809265137,-7.859999656677246,39.18000030517578
1773231954556661200,7.1466611328125,-0.7199999690055847,-9.84000015258789,38.87999725341797
1773231954572655000,7.162655029296875,-0.5399999618530273,-12.359999656677246,38.459999084472656
1773231954588645000,7.17864501953125,-0.17999999225139618,-13.739999771118164,38.279998779296875
1773231954604667600,7.194667724609375,0.11999999731779099,-15.65999984741211,37.619998931884766
1773231954620657200,7.2106572265625,0.8999999761581421,-18.059999465942383,36.47999954223633
1773231954636648700,7.226648681640625,1.3799999952316284,-19.559999465942383,36.36000061035156
1773231954652672500,7.242672607421875,1.7999999523162842,-19.799999237060547,36.23999786376953
1773231954668661800,7.258661865234375,2.4600000381469727,-20.520000457763672,35.39999771118164
1773231954684654000,7.274654052734375,2.3999998569488525,-21.719999313354492,34.73999786376953
1773231954700674300,7.29067431640625,3,-22.439998626708984,34.20000076293945
1773231954716664600,7.30666455078125,3.359999895095825,-23.03999900817871,34.31999969482422
1773231954732658400,7.322658447265625,3.5999999046325684,-22.799999237060547,34.02000045776367
1773231954748648000,7.33864794921875,4.799999713897705,-21.84000015258789,34.2599983215332
1773231954764668700,7.354668701171875,4.440000057220459,-21.53999900817871,36
1773231954780660200,7.37066015625,3.5399999618530273,-20.579999923706055,36.65999984741211
1773231954796652500,7.386652587890625,3.299999952316284,-18.059999465942383,37.13999938964844
1773231954812674000,7.402674072265625,2.5799999237060547,-16.3799991607666,37.79999923706055
1773231954828665000,7.4186650390625,2.759999990463257,-14.460000038146973,38.34000015258789
1773231954844656600,7.43465673828125,3.119999885559082,-12.479999542236328,39.41999816894531
1773231954860646100,7.450646240234375,3.179999828338623,-11.09999942779541,40.13999938964844
1773231954876669400,7.46666943359375,2.759999990463257,-9.960000038146973,40.31999969482422
1773231954892661500,7.48266162109375,2.3399999141693115,-8.220000267028809,40.07999801635742
1773231954908652300,7.49865234375,2.2799999713897705,-5.699999809265137,39.959999084472656
1773231954924672300,7.51467236328125,1.5,-3.9599997997283936,40.619998931884766
1773231954940664600,7.53066455078125,0.8399999737739563,-3.419999837875366,41.279998779296875
1773231954956654000,7.546654052734375,0.29999998211860657,-2.0399999618530273,41.52000045776367
1773231954972647700,7.562647705078125,0.11999999731779099,0.23999999463558197,42
1773231954988668400,7.57866845703125,0.41999998688697815,2.759999990463257,42.599998474121094
1773231955004658700,7.59465869140625,0.35999998450279236,4.799999713897705,42.599998474121094
1773231955020651000,7.610651123046875,0.47999998927116394,6.179999828338623,41.87999725341797
1773231955036671000,7.6266708984375,0.17999999225139618,7.5,41.21999740600586
1773231955052664600,7.64266455078125,-0.8399999737739563,9.359999656677246,40.91999816894531
1773231955068653800,7.65865380859375,-0.23999999463558197,11.75999927520752,40.2599983215332
1773231955084645600,7.674645751953125,0.29999998211860657,13.739999771118164,39.65999984741211
1773231955100667600,7.690667724609375,0.23999999463558197,16.020000457763672,39.119998931884766
1773231955116657700,7.70665771484375,0.23999999463558197,17.760000228881836,38.52000045776367
1773231955132652000,7.722652099609375,0.05999999865889549,19.260000228881836,37.91999816894531
1773231955148672800,7.7386728515625,0.5999999642372131,21.119998931884766,37.02000045776367
1773231955164661500,7.75466162109375,0.7799999713897705,22.3799991607666,35.63999938964844
1773231955180652800,7.77065283203125,0.7799999713897705,23.51999855041504,35.57999801635742
1773231955196645400,7.786645263671875,1.559999942779541,24.35999870300293,34.79999923706055
1773231955212667100,7.802667236328125,1.7999999523162842,25.5,33.71999740600586
1773231955228658200,7.818658203125,1.1999999284744263,26.399999618530273,33.84000015258789
1773231955244649500,7.8346494140625,1.1999999284744263,26.15999984741211,33.84000015258789
1773231955260669700,7.850669677734375,1.5,26.579999923706055,33.71999740600586
1773231955276662800,7.866662841796875,1.2599999904632568,27.479999542236328,34.07999801635742
1773231955292654600,7.882654541015625,1.5,26.279998779296875,34.380001068115234
1773231955308642300,7.898642333984375,1.6200000047683716,25.439998626708984,34.31999969482422
1773231955324666000,7.914666015625,2.2799999713897705,25.5,34.97999954223633
1773231955340657200,7.9306572265625,2.700000047683716,24.119998931884766,36.36000061035156
1773231955356647200,7.946647216796875,2.6399998664855957,22.260000228881836,37.97999954223633
1773231955372669000,7.9626689453125,3,19.799999237060547,38.63999938964844
1773231955388661800,7.978661865234375,3.299999952316284,17.459999084472656,39.119998931884766
1773231955404652800,7.99465283203125,3.7200000286102295,15.719999313354492,40.5
1773231955420674000,8.010674072265624,3.4800000190734863,12.899999618530273,41.34000015258789
1773231955436663800,8.026663818359374,3.419999837875366,9.479999542236328,42.119998931884766
1773231955452658200,8.042658203125,3.419999837875366,6.899999618530273,42.65999984741211
1773231955468649200,8.058649169921875,3,4.259999752044678,42.599998474121094
1773231955484670700,8.074670654296876,2.879999876022339,1.9199999570846558,43.2599983215332
1773231955500660700,8.09066064453125,3.299999952316284,-1.0799999237060547,43.31999969482422
1773231955516651500,8.106651611328125,3.359999895095825,-4.380000114440918,43.02000045776367
1773231955532673800,8.122673828125,3.179999828338623,-6.71999979019165,42.84000015258789
1773231955548663600,8.13866357421875,3.5999999046325684,-9.479999542236328,41.81999969482422
1773231955564654000,8.154654052734376,4.319999694824219,-12.420000076293945,41.52000045776367
1773231955580646400,8.170646484375,4.619999885559082,-15.059999465942383,41.279998779296875
1773231955596667600,8.186667724609375,5.099999904632568,-17.100000381469727,39.89999771118164
1773231955612659700,8.20265966796875,5.099999904632568,-19.559999465942383,39.05999755859375
1773231955628651000,8.218651123046875,5.759999752044678,-21.059999465942383,38.7599983215332
1773231955644672300,8.23467236328125,6.359999656677246,-21.420000076293945,37.439998626708984
1773231955660663800,8.250663818359374,6.539999961853027,-22.799999237060547,36.540000915527344
1773231955676654000,8.266654052734374,7.37999963760376,-23.81999969482422,36.89999771118164
1773231955692644900,8.282644775390626,7.739999771118164,-23.399999618530273,36.29999923706055
1773231955708668400,8.29866845703125,8.039999961853027,-23.81999969482422,35.880001068115234
1773231955724657000,8.314656982421875,7.859999656677246,-24.479999542236328,36.18000030517578
1773231955740650500,8.330650390625,7.679999828338623,-24.059999465942383,36.89999771118164
1773231955756671000,8.3466708984375,7.739999771118164,-23.760000228881836,37.13999938964844
1773231955772663600,8.36266357421875,7.319999694824219,-22.5,37.31999969482422
1773231955788653000,8.378653076171876,5.819999694824219,-21.059999465942383,38.099998474121094
1773231955804646100,8.394646240234374,5.159999847412109,-19.799999237060547,38.7599983215332
1773231955820668000,8.41066796875,4.739999771118164,-17.81999969482422,39.36000061035156
1773231955836657000,8.426656982421875,3.4800000190734863,-17.100000381469727,40.439998626708984
1773231955852649200,8.442649169921875,3.6599998474121094,-15.299999237060547,41.70000076293945
1773231955868669700,8.458669677734376,3.4800000190734863,-12.479999542236328,42.18000030517578
1773231955884662300,8.474662353515624,2.5799999237060547,-11.15999984741211,42.89999771118164
1773231955900652300,8.49065234375,1.9199999570846558,-9.59999942779541,43.5
1773231955916644000,8.50664404296875,0.9599999785423279,-7.319999694824219,43.37999725341797
1773231955932668000,8.52266796875,0.29999998211860657,-5.759999752044678,44.34000015258789
1773231955948657700,8.53865771484375,0.8999999761581421,-4.319999694824219,44.939998626708984
1773231955964648400,8.5546484375,0.7799999713897705,-1.7999999523162842,44.279998779296875
1773231955980668700,8.570668701171876,0.47999998927116394,0.5399999618530273,44.279998779296875
1773231955996661800,8.586661865234374,0.47999998927116394,1.559999942779541,44.939998626708984
1773231956012654000,8.602654052734374,0.5399999618530273,3.419999837875366,44.7599983215332
1773231956028643800,8.618643798828124,0.7799999713897705,5.339999675750732,43.79999923706055
1773231956044664300,8.634664306640625,1.0199999809265137,6.839999675750732,43.79999923706055
1773231956060656000,8.65065625,0.5399999618530273,9.239999771118164,43.91999816894531
1773231956076648400,8.6666484375,-0.5399999618530273,11.039999961853027,42.84000015258789
1773231956092671000,8.6826708984375,-0.29999998211860657,13.25999927520752,41.87999725341797
1773231956108660700,8.69866064453125,-0.23999999463558197,14.699999809265137,41.459999084472656
1773231956124652800,8.71465283203125,-0.35999998450279236,15.479999542236328,41.39999771118164
1773231956140643600,8.7306435546875,-0.23999999463558197,17.34000015258789,41.34000015258789
1773231956156663000,8.7466630859375,-0.23999999463558197,18.53999900817871,40.02000045776367
1773231956172657000,8.762656982421875,-0.17999999225139618,20.100000381469727,39.05999755859375
1773231956188646700,8.778646728515625,-0.17999999225139618,22.020000457763672,38.7599983215332
1773231956204667600,8.794667724609376,0.35999998450279236,23.219999313354492,38.279998779296875
1773231956220660200,8.81066015625,0.8999999761581421,24.239999771118164,38.099998474121094
1773231956236652000,8.826652099609374,1.1999999284744263,24.53999900817871,37.5
1773231956252642800,8.842642822265624,1.4399999380111694,25.139999389648438,36.41999816894531
1773231956268662800,8.858662841796875,1.559999942779541,25.5,37.02000045776367
1773231956284655400,8.8746552734375,1.9199999570846558,25.619998931884766,37.91999816894531
1773231956300646100,8.890646240234375,1.6200000047683716,25.260000228881836,37.13999938964844
1773231956316668700,8.906668701171874,1.1999999284744263,24.35999870300293,36.84000015258789
1773231956332660000,8.922659912109374,0.7199999690055847,23.760000228881836,38.040000915527344
1773231956348648700,8.938648681640625,-0.05999999865889549,22.619998931884766,39.540000915527344
1773231956364641500,8.9546416015625,0.29999998211860657,21.059999465942383,40.5
1773231956380661800,8.970661865234375,1.2599999904632568,19.260000228881836,41.279998779296875
1773231956396653000,8.986653076171875,1.1999999284744263,17.520000457763672,42.599998474121094
1773231956412647000,9.00264697265625,1.4399999380111694,14.399999618530273,43.91999816894531
1773231956428667000,9.0186669921875,1.6200000047683716,10.859999656677246,44.21999740600586
1773231956444658000,9.034657958984376,1.5,8.760000228881836,44.63999938964844
1773231956460649000,9.05064892578125,2.0399999618530273,5.87999963760376,45.05999755859375
1773231956476671500,9.06667138671875,1.9799998998641968,2.700000047683716,45.36000061035156
1773231956492662300,9.082662353515625,1.559999942779541,0.5399999618530273,46.02000045776367
1773231956508653800,9.09865380859375,0.7199999690055847,-2.759999990463257,46.13999938964844
1773231956524643600,9.1146435546875,0.35999998450279236,-7.259999752044678,45.779998779296875
1773231956540664800,9.130664794921875,0.5399999618530273,-10.920000076293945,45.36000061035156
1773231956556657700,9.14665771484375,0.41999998688697815,-13.739999771118164,44.81999969482422
1773231956572649700,9.162649658203126,1.2599999904632568,-15.899999618530273,43.79999923706055
1773231956588669000,9.1786689453125,2.1599998474121094,-17.69999885559082,43.07999801635742
1773231956604661000,9.194660888671875,2.819999933242798,-20.279998779296875,42.41999816894531
1773231956620652300,9.21065234375,2.700000047683716,-22.19999885559082,41.21999740600586
1773231956636644900,9.226644775390625,1.8600000143051147,-24.479999542236328,39.71999740600586
1773231956652667000,9.2426669921875,2.4600000381469727,-26.81999969482422,39
1773231956668657000,9.258656982421876,3.4800000190734863,-28.19999885559082,38.70000076293945
1773231956684648400,9.2746484375,3.6599998474121094,-29.579999923706055,37.55999755859375
1773231956700668400,9.29066845703125,3.8399999141693115,-30.420000076293945,37.20000076293945
1773231956716661200,9.3066611328125,3.6599998474121094,-30.35999870300293,36.540000915527344
1773231956732652800,9.32265283203125,3.4800000190734863,-30.779998779296875,35.7599983215332
1773231956748644000,9.33864404296875,3.9599997997283936,-30.779998779296875,36.41999816894531
1773231956764663300,9.354663330078125,4.199999809265137,-30.599998474121094,37.13999938964844
1773231956780657000,9.370656982421876,4.079999923706055,-30.299999237060547,37.79999923706055
1773231956796646100,9.386646240234375,3.7200000286102295,-29.03999900817871,37.97999954223633
1773231956812668000,9.40266796875,3.419999837875366,-28.01999855041504,38.459999084472656
1773231956828661500,9.41866162109375,3.119999885559082,-26.15999984741211,39.89999771118164
1773231956844652500,9.434652587890625,2.4600000381469727,-24.719999313354492,41.15999984741211
1773231956860642600,9.450642578125,2.3999998569488525,-23.399999618530273,41.7599983215332
1773231956876665000,9.4666650390625,2.1599998474121094,-21.65999984741211,42
1773231956892656600,9.48265673828125,1.7400000095367432,-19.920000076293945,43.619998931884766
1773231956908646000,9.49864599609375,0.5999999642372131,-17.81999969482422,44.63999938964844
1773231956924667000,9.5146669921875,0,-16.020000457763672,44.7599983215332
1773231956940659000,9.530658935546874,0.9599999785423279,-13.859999656677246,45.41999816894531
1773231956956651300,9.5466513671875,0.23999999463558197,-12.059999465942383,45.779998779296875
1773231956972640500,9.562640625,-1.4399999380111694,-10.260000228881836,45.959999084472656
1773231956988661800,9.578661865234375,-1.4399999380111694,-7.5,46.439998626708984
1773231957004654300,9.594654296875,-1.7999999523162842,-5.400000095367432,47.459999084472656
1773231957028643000,9.61864306640625,-1.9199999570846558,-1.8600000143051147,47.21999740600586
1773231957044662500,9.63466259765625,-2.1599998474121094,0.7199999690055847,47.279998779296875
1773231957060652800,9.65065283203125,-2.819999933242798,2.700000047683716,46.91999816894531
1773231957076645000,9.66664501953125,-2.700000047683716,4.859999656677246,46.55999755859375
1773231957092665600,9.68266552734375,-2.700000047683716,7.079999923706055,47.15999984741211
1773231957108658700,9.69865869140625,-3.119999885559082,9.059999465942383,46.439998626708984
1773231957124650200,9.714650146484376,-2.759999990463257,10.739999771118164,45.779998779296875
1773231957140641300,9.730641357421876,-2.3399999141693115,13.079999923706055,45.23999786376953
1773231957156661500,9.74666162109375,-1.9199999570846558,15.179999351501465,44.70000076293945
1773231957172654300,9.762654296875,-2.3999998569488525,16.3799991607666,44.7599983215332
1773231957188645000,9.77864501953125,-2.879999876022339,17.69999885559082,44.15999984741211
1773231957204666400,9.794666259765625,-2.6399998664855957,18.719999313354492,43.439998626708984
1773231957220659000,9.810658935546876,-2.93999981880188,20.520000457763672,43.02000045776367
1773231957236648400,9.8266484375,-3.179999828338623,22.079999923706055,43.02000045776367
1773231957252671000,9.8426708984375,-3.240000009536743,23.279998779296875,42.84000015258789
1773231957268662500,9.85866259765625,-2.93999981880188,23.51999855041504,42.29999923706055
1773231957284652300,9.87465234375,-2.700000047683716,22.920000076293945,42.18000030517578
1773231957300645400,9.890645263671875,-2.4600000381469727,23.219999313354492,41.63999938964844
1773231957316667000,9.9066669921875,-2.2200000286102295,22.979999542236328,41.63999938964844
1773231957332657200,9.9226572265625,-1.8600000143051147,22.619998931884766,42.29999923706055
1773231957348648000,9.93864794921875,-1.4399999380111694,21.600000381469727,42.540000915527344
1773231957364639500,9.954639404296875,-0.41999998688697815,19.5,43.07999801635742
1773231957380660700,9.97066064453125,0.6599999666213989,16.020000457763672,44.34000015258789
1773231957396651500,9.986651611328124,0.29999998211860657,12.779999732971191,45.89999771118164
1773231957412642800,10.002642822265624,0.29999998211860657,10.859999656677246,46.68000030517578
1773231957428663300,10.018663330078125,0.35999998450279236,8.579999923706055,46.86000061035156
1773231957444654600,10.034654541015625,-0.23999999463558197,5.039999961853027,46.97999954223633
1773231957460646000,10.05064599609375,0.11999999731779099,1.1999999284744263,47.21999740600586
1773231957476639500,10.066639404296875,0.6599999666213989,-2.3999998569488525,47.52000045776367
1773231957492661500,10.08266162109375,-0.8999999761581421,-6.299999713897705,47.21999740600586
1773231957508650000,10.09864990234375,-2.1599998474121094,-9.65999984741211,46.68000030517578
1773231957524641300,10.114641357421876,-1.559999942779541,-13.139999389648438,46.07999801635742
1773231957540662000,10.130662109375,-1.3799999952316284,-16.559999465942383,45.47999954223633
1773231957556655600,10.146655517578125,-0.7799999713897705,-20.100000381469727,44.459999084472656
1773231957572647700,10.162647705078125,0.29999998211860657,-22.85999870300293,42.959999084472656
1773231957588666600,10.17866650390625,0.6599999666213989,-24.959999084472656,41.57999801635742
1773231957604658000,10.194657958984376,0.41999998688697815,-27.719999313354492,40.5
1773231957620650000,10.21064990234375,0.6599999666213989,-29.939998626708984,39.05999755859375
1773231957636641300,10.226641357421874,1.1399999856948853,-31.559999465942383,37.07999801635742
1773231957652664300,10.242664306640625,1.5,-32.81999969482422,35.52000045776367
1773231957668654600,10.258654541015625,1.9199999570846558,-34.02000045776367,34.86000061035156
1773231957684646000,10.27464599609375,2.700000047683716,-35.279998779296875,34.2599983215332
1773231957700666400,10.290666259765626,3.4800000190734863,-36.540000915527344,33.47999954223633
1773231957716660000,10.306659912109374,3.4800000190734863,-37.73999786376953,32.81999969482422
1773231957732649200,10.322649169921876,3.5399999618530273,-37.79999923706055,32.63999938964844
1773231957748641300,10.338641357421874,3.5999999046325684,-36.779998779296875,32.63999938964844
1773231957764663000,10.3546630859375,3.299999952316284,-35.7599983215332,33.84000015258789
1773231957780653800,10.37065380859375,2.819999933242798,-35.57999801635742,34.91999816894531
1773231957796643800,10.386643798828125,2.2799999713897705,-35.279998779296875,35.63999938964844
1773231957812668400,10.40266845703125,1.1399999856948853,-33.65999984741211,36.23999786376953
1773231957828656600,10.41865673828125,0.17999999225139618,-32.39999771118164,37.2599983215332
1773231957844649000,10.43464892578125,-0.11999999731779099,-30.84000015258789,38.57999801635742
1773231957860641000,10.45064111328125,-0.47999998927116394,-28.739999771118164,39.36000061035156
1773231957876661500,10.46666162109375,-0.8399999737739563,-27.299999237060547,41.21999740600586
1773231957892653800,10.48265380859375,-2.2200000286102295,-25.31999969482422,42.29999923706055
1773231957908644000,10.49864404296875,-3.119999885559082,-22.979999542236328,43.02000045776367
1773231957924665000,10.5146650390625,-3,-21.299999237060547,43.68000030517578
1773231957940657200,10.5306572265625,-3.240000009536743,-19.3799991607666,44.21999740600586
1773231957956647200,10.546647216796876,-3.299999952316284,-16.920000076293945,45.119998931884766
1773231957972641000,10.56264111328125,-3.8399999141693115,-14.519999504089355,46.07999801635742
1773231957988659700,10.57865966796875,-4.139999866485596,-12.119999885559082,46.20000076293945
1773231958004650800,10.594650634765625,-3.7200000286102295,-10.319999694824219,46.37999725341797
1773231958020643000,10.61064306640625,-3.6599998474121094,-8.039999961853027,47.099998474121094
1773231958036666400,10.626666259765624,-3.4800000190734863,-5.759999752044678,47.81999969482422
1773231958052655900,10.64265576171875,-3.5399999618530273,-3.8399999141693115,48.05999755859375
1773231958068646000,10.65864599609375,-4.559999942779541,-1.3799999952316284,48.05999755859375
1773231958084637700,10.6746376953125,-4.920000076293945,1.559999942779541,47.87999725341797
1773231958100659000,10.690658935546875,-5.039999961853027,4.079999923706055,47.34000015258789
1773231958116651500,10.706651611328125,-5.759999752044678,5.519999980926514,47.63999938964844
1773231958132644400,10.722644287109375,-5.940000057220459,8.039999961853027,47.21999740600586
1773231958148664300,10.738664306640626,-5.819999694824219,9.719999313354492,46.79999923706055
1773231958164655900,10.75465576171875,-6.059999942779541,9.84000015258789,47.03999710083008
1773231958180645400,10.770645263671875,-6.239999771118164,11.15999984741211,46.02000045776367
1773231958196636400,10.786636474609375,-6,12.960000038146973,45.36000061035156
1773231958212661500,10.80266162109375,-5.519999980926514,14.519999504089355,45.47999954223633
1773231958228652000,10.818652099609375,-6,16.020000457763672,45.23999786376953
1773231958244642800,10.834642822265625,-6.779999732971191,17.34000015258789,45.05999755859375
1773231958260663800,10.850663818359376,-6.899999618530273,17.219999313354492,45.29999923706055
1773231958276655600,10.866655517578126,-6.599999904632568,16.619998931884766,45.65999984741211
1773231958292646100,10.882646240234376,-6.059999942779541,16.3799991607666,45.84000015258789
1773231958308668000,10.89866796875,-5.87999963760376,16.31999969482422,45.779998779296875
1773231958324658700,10.91465869140625,-5.460000038146973,15.960000038146973,45.84000015258789
1773231958340648200,10.930648193359374,-5.21999979019165,14.9399995803833,46.02000045776367
1773231958356639500,10.946639404296874,-4.920000076293945,13.619999885559082,46.5
1773231958372663800,10.962663818359376,-4.079999923706055,11.819999694824219,46.97999954223633
1773231958388654300,10.978654296875,-3.179999828338623,9.059999465942383,48
1773231958404645600,10.994645751953126,-3,5.759999752044678,48.779998779296875
1773231958420666000,11.010666015625,-3,3.6599998474121094,48.23999786376953
1773231958436659200,11.0266591796875,-3.059999942779541,0.7799999713897705,48.119998931884766
1773231958452649500,11.0426494140625,-3.179999828338623,-2.879999876022339,48.41999816894531
1773231958468639200,11.05863916015625,-3.240000009536743,-5.339999675750732,48.23999786376953
1773231958484661800,11.074661865234376,-2.819999933242798,-8.399999618530273,47.57999801635742
1773231958500653300,11.0906533203125,-2.5199999809265137,-11.639999389648438,47.15999984741211
1773231958516644600,11.10664453125,-2.2200000286102295,-14.819999694824219,46.91999816894531
1773231958532668200,11.122668212890625,-1.3199999332427979,-18,46.07999801635742
1773231958548657700,11.13865771484375,-1.1999999284744263,-19.979999542236328,44.34000015258789
1773231958564648200,11.154648193359375,-0.23999999463558197,-22.799999237060547,42.41999816894531
1773231958580638700,11.170638671875,1.1999999284744263,-26.099998474121094,41.15999984741211
1773231958596661000,11.186660888671875,2.1599998474121094,-27.899999618530273,40.31999969482422
1773231958612653300,11.2026533203125,3.119999885559082,-30.239999771118164,39
1773231958628643000,11.21864306640625,4.380000114440918,-32.040000915527344,37.5
1773231958644665000,11.2346650390625,5.21999979019165,-32.939998626708984,35.57999801635742
1773231958660656000,11.25065625,5.519999980926514,-33.71999740600586,34.5
1773231958676646100,11.266646240234374,6,-35.040000915527344,34.02000045776367
1773231958692640300,11.28264013671875,5.87999963760376,-36.36000061035156,33.119998931884766
1773231958708660700,11.29866064453125,6.119999885559082,-36.84000015258789,32.459999084472656
1773231958724651300,11.3146513671875,6.119999885559082,-37.02000045776367,32.040000915527344
1773231958740642800,11.330642822265625,5.940000057220459,-37.13999938964844,32.099998474121094
1773231958756664800,11.346664794921875,6.119999885559082,-36.47999954223633,32.63999938964844
1773231958772655000,11.362655029296874,5.339999675750732,-36.05999755859375,33.119998931884766
1773231958788647400,11.3786474609375,4.319999694824219,-36.05999755859375,33.29999923706055
1773231958804637000,11.394636962890624,4.679999828338623,-34.439998626708984,33.959999084472656
1773231958820660200,11.41066015625,5.21999979019165,-33.65999984741211,35.040000915527344
1773231958836649700,11.426649658203125,4.859999656677246,-33.47999954223633,35.459999084472656
1773231958852642000,11.44264208984375,5.099999904632568,-31.85999870300293,36.29999923706055
1773231958868662800,11.458662841796874,4.5,-30.35999870300293,37.91999816894531
1773231958884655000,11.474655029296875,3.7799999713897705,-28.68000030517578,39.18000030517578
1773231958900646000,11.49064599609375,4.079999923706055,-26.81999969482422,40.31999969482422
1773231958916638500,11.506638427734375,3.8399999141693115,-26.34000015258789,41.70000076293945
1773231958932660500,11.522660400390626,3.119999885559082,-25.3799991607666,42.540000915527344
1773231958948651300,11.5386513671875,2.3399999141693115,-22.5,42.65999984741211
1773231958964641000,11.55464111328125,2.0999999046325684,-20.34000015258789,44.34000015258789
1773231958980663600,11.57066357421875,1.9799998998641968,-19.020000457763672,45.119998931884766
1773231958996654000,11.586654052734374,1.5,-16.139999389648438,44.81999969482422
1773231959012644900,11.602644775390624,0.23999999463558197,-14.279999732971191,45.65999984741211
1773231959028635400,11.618635498046874,0.05999999865889549,-12.779999732971191,46.13999938964844
1773231959044731000,11.63473095703125,-0.23999999463558197,-10.739999771118164,46.31999969482422
1773231959060723000,11.650722900390624,-1.0799999237060547,-8.579999923706055,46.619998931884766
1773231959076715000,11.666715087890625,-1.4399999380111694,-5.759999752044678,47.03999710083008
1773231959092737000,11.682737060546875,-1.6799999475479126,-3.359999895095825,47.15999984741211
1773231959108727800,11.698727783203125,-0.8399999737739563,-1.3799999952316284,47.099998474121094
1773231959124718800,11.71471875,-0.7199999690055847,0.8399999737739563,47.099998474121094
1773231959140711400,11.73071142578125,-1.1399999856948853,3.240000009536743,47.21999740600586
1773231959156732400,11.746732421875,-1.0199999809265137,4.319999694824219,47.939998626708984
1773231959172723500,11.762723388671875,-1.1399999856948853,5.819999694824219,48
1773231959188714500,11.778714599609375,-1.1399999856948853,8.760000228881836,47.57999801635742
1773231959204736000,11.794736083984375,-0.8999999761581421,10.800000190734863,46.5
1773231959220727600,11.8107275390625,-1.0199999809265137,12,45.71999740600586
1773231959236719000,11.826718994140625,-1.1999999284744263,12.84000015258789,46.07999801635742
1773231959252741600,11.84274169921875,-1.0799999237060547,13.5,45.779998779296875
1773231959268731400,11.8587314453125,-0.6599999666213989,14.699999809265137,45.41999816894531
1773231959284723200,11.87472314453125,0.17999999225139618,15.359999656677246,45.119998931884766
1773231959300713000,11.890712890625,0,15.359999656677246,45.23999786376953
1773231959316736500,11.906736572265626,-0.29999998211860657,15.119999885559082,45.18000030517578
1773231959332727800,11.922727783203126,0,14.699999809265137,45.71999740600586
1773231959348718300,11.93871826171875,0.17999999225139618,13.920000076293945,46.02000045776367
1773231959364708400,11.954708251953125,0.23999999463558197,12.119999885559082,45.71999740600586
1773231959380729300,11.970729248046876,0.5399999618530273,10.619999885559082,46.68000030517578
1773231959396721400,11.986721435546874,1.0199999809265137,8.279999732971191,47.099998474121094
1773231959412714000,12.0027138671875,1.7400000095367432,5.279999732971191,47.34000015258789
1773231959428736300,12.018736328125,2.6399998664855957,3.6599998474121094,47.63999938964844
1773231959444725000,12.03472509765625,2.759999990463257,1.7999999523162842,48
1773231959460716500,12.050716552734375,3.119999885559082,-1.5,49.07999801635742
1773231959476740600,12.06674072265625,3.5399999618530273,-4.5,48.84000015258789
1773231959492732000,12.08273193359375,3.119999885559082,-7.5,47.459999084472656
1773231959508723500,12.098723388671875,3.7200000286102295,-10.800000190734863,46.5
1773231959524713200,12.114713134765625,3.9599997997283936,-13.380000114440918,45.71999740600586
1773231959540734200,12.130734130859375,3.299999952316284,-16.260000228881836,44.459999084472656
1773231959556726500,12.1467265625,3.7799999713897705,-19.31999969482422,43.619998931884766
1773231959572715300,12.16271533203125,4.199999809265137,-22.19999885559082,42.540000915527344
1773231959588707000,12.17870703125,4.559999942779541,-25.619998931884766,40.619998931884766
1773231959604728300,12.194728271484376,4.799999713897705,-27.779998779296875,39.47999954223633
1773231959620722200,12.21072216796875,5.039999961853027,-29.219999313354492,37.55999755859375
1773231959636711200,12.226711181640624,6,-31.619998931884766,35.63999938964844
1773231959652735000,12.24273486328125,5.639999866485596,-33.18000030517578,35.279998779296875
1773231959668726000,12.25872607421875,6.119999885559082,-34.07999801635742,34.20000076293945
1773231959684715000,12.274715087890625,7.319999694824219,-35.39999771118164,32.70000076293945
1773231959700738800,12.29073876953125,7.139999866485596,-36,31.5
1773231959716729000,12.30672900390625,7.440000057220459,-36.23999786376953,31.139999389648438
1773231959732722400,12.322722412109375,7.799999713897705,-37.02000045776367,31.19999885559082
1773231959748711200,12.338711181640624,8.09999942779541,-36.959999084472656,31.01999855041504
1773231959764733400,12.3547333984375,7.919999599456787,-36.41999816894531,30.53999900817871
1773231959780725200,12.370725341796875,7.980000019073486,-36.41999816894531,30.84000015258789
1773231959796716000,12.386716064453125,8.460000038146973,-35.63999938964844,31.979999542236328
1773231959812737500,12.402737548828124,8.09999942779541,-34.20000076293945,32.63999938964844
1773231959828729300,12.418729248046875,7.199999809265137,-32.7599983215332,33.84000015258789
1773231959844719600,12.4347197265625,7.319999694824219,-31.139999389648438,35.52000045776367
1773231959860712000,12.4507119140625,7.559999942779541,-29.51999855041504,36.29999923706055
1773231959876733400,12.4667333984375,6.899999618530273,-27.779998779296875,37.07999801635742
1773231959892724000,12.482723876953125,7.019999980926514,-26.69999885559082,38.39999771118164
1773231959908714500,12.498714599609375,6.71999979019165,-25.5,39.599998474121094
1773231959924735000,12.51473486328125,6.059999942779541,-23.459999084472656,40.73999786376953
1773231959940728800,12.530728759765625,5.339999675750732,-21.119998931884766,41.57999801635742
1773231959956720400,12.546720458984375,4.980000019073486,-19.3799991607666,42.65999984741211
1773231959972711700,12.562711669921875,4.019999980926514,-17.940000534057617,43.37999725341797
1773231959988733000,12.57873291015625,2.2200000286102295,-16.139999389648438,43.79999923706055
1773231960004722400,12.594722412109375,1.7999999523162842,-14.09999942779541,44.279998779296875
1773231960020715500,12.610715576171875,1.0199999809265137,-12.779999732971191,44.7599983215332
1773231960036735500,12.626735595703124,-0.35999998450279236,-11.460000038146973,45.779998779296875
1773231960052729300,12.642729248046875,-0.8399999737739563,-8.699999809265137,45.84000015258789
1773231960068719000,12.658718994140624,-0.9599999785423279,-6.539999961853027,45.65999984741211
1773231960084708900,12.674708984375,-1.0199999809265137,-4.259999752044678,46.2599983215332
1773231960100731000,12.69073095703125,-1.5,-1.9799998998641968,46.20000076293945
1773231960116724000,12.706723876953125,-2.3399999141693115,-0.29999998211860657,45.779998779296875
1773231960132715500,12.722715576171876,-3.5399999618530273,1.5,45.779998779296875
1773231960148737800,12.73873779296875,-5.279999732971191,3.8999998569488525,46.07999801635742
1773231960164727000,12.75472705078125,-6.299999713897705,6.179999828338623,46.439998626708984
1773231960180717800,12.7707177734375,-6,7.980000019073486,46.2599983215332
1773231960196709000,12.786709228515624,-6.659999847412109,9.84000015258789,45.36000061035156
1773231960212733200,12.802733154296876,-7.37999963760376,11.279999732971191,44.81999969482422
1773231960228724200,12.81872412109375,-7.440000057220459,12.779999732971191,44.63999938964844
1773231960244713500,12.83471337890625,-7.739999771118164,14.15999984741211,43.86000061035156
1773231960260735000,12.85073486328125,-7.319999694824219,14.399999618530273,43.55999755859375
1773231960276728000,12.86672802734375,-7.559999942779541,15.59999942779541,43.13999938964844
1773231960292719400,12.88271923828125,-7.440000057220459,16.799999237060547,42.65999984741211
1773231960308738800,12.89873876953125,-6.839999675750732,16.979999542236328,42.599998474121094
1773231960324731400,12.9147314453125,-6.539999961853027,17.520000457763672,42.47999954223633
1773231960340154400,12.930154296875,-5.940000057220459,17.15999984741211,43.73999786376953
1773231960356712400,12.94671240234375,-5.460000038146973,16.920000076293945,44.099998474121094
1773231960372735200,12.9627353515625,-4.920000076293945,15.239999771118164,44.34000015258789
1773231960388725000,12.97872509765625,-4.799999713897705,13.25999927520752,44.21999740600586
1773231960404716000,12.994716064453126,-5.279999732971191,10.920000076293945,44.70000076293945
1773231960420738600,13.010738525390625,-5.099999904632568,8.15999984741211,44.939998626708984
1773231960436731400,13.0267314453125,-5.279999732971191,6.059999942779541,45.53999710083008
1773231960452723500,13.042723388671876,-5.099999904632568,3.7799999713897705,46.37999725341797
1773231960468713200,13.058713134765625,-4.5,0.29999998211860657,46.02000045776367
1773231960484735200,13.0747353515625,-5.039999961853027,-2.700000047683716,45.84000015258789
1773231960500725800,13.090725830078124,-5.279999732971191,-5.639999866485596,45.959999084472656
1773231960516717800,13.1067177734375,-5.039999961853027,-8.760000228881836,46.2599983215332
1773231960532739000,13.122739013671875,-4.440000057220459,-11.699999809265137,45.71999740600586
1773231960548730600,13.138730712890625,-3.6599998474121094,-15.119999885559082,44.21999740600586
1773231960564719400,13.15471923828125,-2.819999933242798,-18.239999771118164,43.37999725341797
1773231960580712400,13.17071240234375,-1.4399999380111694,-20.8799991607666,42.71999740600586
1773231960596733400,13.1867333984375,-1.3199999332427979,-23.279998779296875,40.97999954223633
1773231960612727000,13.20272705078125,-1.0199999809265137,-25.68000030517578,40.07999801635742
1773231960628717800,13.2187177734375,0.35999998450279236,-27.479999542236328,39.599998474121094
1773231960644737300,13.2347373046875,1.6200000047683716,-29.099998474121094,37.619998931884766
1773231960660728300,13.250728271484375,2.700000047683716,-31.19999885559082,35.63999938964844
1773231960676719600,13.2667197265625,3.059999942779541,-32.63999938964844,34.439998626708984
1773231960692711000,13.2827109375,3.299999952316284,-33.779998779296875,33.599998474121094
1773231960708734500,13.298734375,3.299999952316284,-34.79999923706055,32.57999801635742
1773231960724725000,13.31472509765625,3.7799999713897705,-35.52000045776367,31.3799991607666
1773231960740715300,13.33071533203125,4.5,-36.599998474121094,30.84000015258789
1773231960756737300,13.3467373046875,4.799999713897705,-36.65999984741211,30
1773231960772729600,13.3627294921875,4.799999713897705,-36.89999771118164,29.8799991607666
1773231960788719000,13.378718994140625,4.739999771118164,-36.540000915527344,30
1773231960804711400,13.39471142578125,4.559999942779541,-35.57999801635742,30.059999465942383
1773231960820732000,13.41073193359375,3.8399999141693115,-35.279998779296875,31.01999855041504
1773231960836724700,13.426724853515625,3.179999828338623,-34.619998931884766,31.67999839782715
1773231960852717800,13.4427177734375,1.9799998998641968,-34.02000045776367,31.67999839782715
1773231960868737300,13.4587373046875,1.6799999475479126,-32.81999969482422,32.21999740600586
1773231960884727800,13.474727783203125,1.9199999570846558,-31.979999542236328,33.71999740600586
1773231960900719000,13.490718994140625,0.7799999713897705,-31.139999389648438,34.73999786376953
1773231960916712400,13.50671240234375,-0.29999998211860657,-29.81999969482422,35.459999084472656
1773231960932733400,13.5227333984375,-0.35999998450279236,-28.619998931884766,36.779998779296875
1773231960948724500,13.538724365234375,-0.7799999713897705,-27.059999465942383,37.2599983215332
1773231960964715000,13.554715087890624,-1.8600000143051147,-26.51999855041504,36.779998779296875
1773231960980737000,13.570737060546875,-2.700000047683716,-25.979999542236328,37.79999923706055
1773231960996727300,13.586727294921875,-2.759999990463257,-23.8799991607666,39.71999740600586
1773231961012721000,13.602720947265626,-3.240000009536743,-21.779998779296875,40.91999816894531
1773231961028709400,13.61870947265625,-3,-20.459999084472656,41.279998779296875
1773231961044731400,13.6347314453125,-3.240000009536743,-18.18000030517578,42.05999755859375
1773231961060723200,13.65072314453125,-4.559999942779541,-16.619998931884766,43.13999938964844
1773231961076713500,13.66671337890625,-5.639999866485596,-15,43.2599983215332
1773231961092737300,13.6827373046875,-5.759999752044678,-12.899999618530273,43.37999725341797
1773231961108727300,13.698727294921875,-5.87999963760376,-11.34000015258789,43.619998931884766
1773231961124718000,13.714718017578125,-6.779999732971191,-8.760000228881836,43.5
1773231961140710400,13.73071044921875,-7.799999713897705,-6.839999675750732,44.099998474121094
1773231961156731000,13.74673095703125,-8.579999923706055,-5.279999732971191,44.81999969482422
1773231961172722000,13.762721923828124,-9.359999656677246,-2.879999876022339,44.63999938964844
1773231961188713200,13.778713134765624,-9.719999313354492,-1.1399999856948853,44.57999801635742
1773231961204735700,13.79473583984375,-9.479999542236328,0.41999998688697815,45
1773231961220726800,13.810726806640625,-9.779999732971191,2.759999990463257,44.39999771118164
1773231961236718800,13.82671875,-10.199999809265137,4.679999828338623,43.91999816894531
1773231961252710000,13.8427099609375,-10.199999809265137,6.059999942779541,44.459999084472656
1773231961268731400,13.8587314453125,-10.679999351501465,6.480000019073486,44.21999740600586
1773231961284722400,13.874722412109374,-11.639999389648438,7.739999771118164,44.099998474121094
1773231961300712200,13.890712158203126,-11.699999809265137,9.359999656677246,44.21999740600586
1773231961316736500,13.906736572265626,-11.15999984741211,9,43.91999816894531
1773231961332726500,13.9227265625,-11.15999984741211,8.760000228881836,43.5
1773231961348718600,13.938718505859375,-11.579999923706055,8.399999618530273,42.89999771118164
1773231961364710100,13.954710205078126,-11.460000038146973,7.019999980926514,42.959999084472656
1773231961380729600,13.9707294921875,-10.979999542236328,5.759999752044678,43.68000030517578
1773231961396722200,13.98672216796875,-11.09999942779541,4.019999980926514,43.5
1773231961412713500,14.00271337890625,-11.219999313354492,1.3799999952316284,43.55999755859375
1773231961428735500,14.018735595703125,-10.859999656677246,-1.0799999237060547,43.86000061035156
1773231961444727000,14.03472705078125,-10.4399995803833,-3.419999837875366,43.73999786376953
1773231961460716300,14.05071630859375,-10.319999694824219,-6,43.31999969482422
1773231961476738000,14.066738037109374,-10.079999923706055,-8.699999809265137,43.13999938964844
1773231961492729900,14.082729736328124,-9.65999984741211,-10.739999771118164,43.07999801635742
1773231961508721000,14.098720947265624,-8.819999694824219,-12.65999984741211,42
1773231961524713000,14.114712890625,-7.559999942779541,-15.479999542236328,40.73999786376953
1773231961540735000,14.13073486328125,-6.539999961853027,-19.079999923706055,39.47999954223633
1773231961556724500,14.146724365234375,-5.940000057220459,-22.31999969482422,38.52000045776367
1773231961572718600,14.162718505859376,-5.279999732971191,-24.420000076293945,36.89999771118164
1773231961588707000,14.17870703125,-4.139999866485596,-26.34000015258789,35.15999984741211
1773231961604731100,14.194731201171875,-3,-28.68000030517578,34.07999801635742
1773231961620722200,14.21072216796875,-2.3399999141693115,-30.17999839782715,32.459999084472656
1773231961636711400,14.22671142578125,-1.7999999523162842,-31.85999870300293,30.719999313354492
1773231961652733700,14.242733642578125,-0.7199999690055847,-33.47999954223633,29.099998474121094
1773231961668726500,14.2587265625,0.29999998211860657,-34.439998626708984,27.599998474121094
1773231961684716500,14.274716552734375,1.0199999809265137,-35.52000045776367,26.34000015258789
1773231961700737000,14.290737060546874,1.0799999237060547,-36.29999923706055,25.139999389648438
1773231961716729300,14.306729248046874,1.1999999284744263,-37.68000030517578,24
1773231961732722400,14.322722412109375,1.4399999380111694,-38.63999938964844,23.51999855041504
1773231961748711200,14.338711181640624,0.7799999713897705,-38.70000076293945,22.979999542236328
1773231961764733400,14.3547333984375,0.05999999865889549,-39.119998931884766,22.260000228881836
1773231961780723700,14.3707236328125,-1.3199999332427979,-39.05999755859375,22.799999237060547
1773231961796716000,14.386716064453125,-2.3999998569488525,-38.52000045776367,23.279998779296875
1773231961812739000,14.402739013671875,-3.059999942779541,-37.13999938964844,23.51999855041504
1773231961828728600,14.418728515625,-4.139999866485596,-35.57999801635742,24.719999313354492
1773231961844720400,14.434720458984375,-4.920000076293945,-34.73999786376953,26.15999984741211
1773231961860710000,14.4507099609375,-4.920000076293945,-34.13999938964844,27.479999542236328
1773231961876732200,14.466732177734375,-4.920000076293945,-33.779998779296875,28.01999855041504
1773231961892725000,14.48272509765625,-5.339999675750732,-32.63999938964844,29.579999923706055
1773231961908714800,14.49871484375,-5.159999847412109,-31.31999969482422,31.739999771118164
1773231961924737300,14.5147373046875,-5.87999963760376,-30.17999839782715,32.279998779296875
1773231961940730000,14.530730224609375,-6.420000076293945,-28.5,32.81999969482422
1773231961956717800,14.5467177734375,-6.359999656677246,-26.459999084472656,33.71999740600586
1773231961972711200,14.562711181640625,-6.599999904632568,-24.53999900817871,35.21999740600586
1773231961988733000,14.57873291015625,-6.599999904632568,-23.399999618530273,36.47999954223633
1773231962004723700,14.5947236328125,-7.019999980926514,-22.3799991607666,37.97999954223633
1773231962020714800,14.61071484375,-7.5,-20.520000457763672,38.939998626708984
1773231962036736500,14.626736572265624,-7.559999942779541,-17.940000534057617,39.23999786376953
1773231962052729300,14.642729248046875,-7.679999828338623,-15.899999618530273,39.89999771118164
1773231962068717600,14.658717529296876,-7.739999771118164,-14.699999809265137,40.13999938964844
1773231962084711000,14.6747109375,-8.15999984741211,-13.019999504089355,40.73999786376953
1773231962100731400,14.6907314453125,-8.460000038146973,-10.5,42.18000030517578
1773231962116723200,14.70672314453125,-8.34000015258789,-7.859999656677246,43.07999801635742
1773231962132715300,14.72271533203125,-9.119999885559082,-5.940000057220459,42.84000015258789
1773231962148735000,14.73873486328125,-9.960000038146973,-3.6599998474121094,42.36000061035156
1773231962164727800,14.754727783203125,-10.260000228881836,-1.7999999523162842,42
1773231962180717000,14.770717041015626,-10.5,-0.6599999666213989,42.71999740600586
1773231962196708400,14.786708251953126,-10.679999351501465,0.9599999785423279,43.5
1773231962212731600,14.802731689453125,-10.920000076293945,2.700000047683716,42.959999084472656
1773231962228723500,14.818723388671875,-10.859999656677246,4.559999942779541,42.65999984741211
1773231962244714800,14.83471484375,-10.920000076293945,5.159999847412109,42.65999984741211
1773231962260735000,14.85073486328125,-11.15999984741211,4.559999942779541,42.41999816894531
1773231962276726500,14.8667265625,-10.679999351501465,4.559999942779541,41.7599983215332
1773231962292720000,14.88272021484375,-10.260000228881836,4.859999656677246,41.57999801635742
1773231962308740400,14.898740234375,-10.739999771118164,4.079999923706055,41.81999969482422
1773231962324731400,14.9147314453125,-10.380000114440918,3.4800000190734863,41.81999969482422
1773231962340721400,14.930721435546875,-9.779999732971191,3.059999942779541,42.29999923706055
1773231962356712400,14.94671240234375,-9.779999732971191,1.3799999952316284,42.599998474121094
1773231962372736300,14.962736328125,-9.359999656677246,-0.8999999761581421,42.05999755859375
1773231962388726800,14.978726806640625,-8.279999732971191,-2.759999990463257,41.81999969482422
1773231962404717000,14.994717041015624,-6.839999675750732,-4.859999656677246,42.23999786376953
1773231962420738000,15.010738037109375,-6.599999904632568,-7.5,41.52000045776367
1773231962436731400,15.0267314453125,-6.119999885559082,-9.960000038146973,40.97999954223633
1773231962452722000,15.042721923828125,-5.819999694824219,-11.75999927520752,40.439998626708984
1773231962468712700,15.058712646484375,-6.179999828338623,-14.279999732971191,38.87999725341797
1773231962484734000,15.07473388671875,-5.519999980926514,-16.920000076293945,37.07999801635742
1773231962500725200,15.090725341796874,-5.099999904632568,-18.899999618530273,35.7599983215332
1773231962516716500,15.106716552734374,-4.859999656677246,-21.119998931884766,33.65999984741211
1773231962532739600,15.122739501953125,-4.619999885559082,-24,31.260000228881836
1773231962548728800,15.138728759765625,-5.099999904632568,-26.219999313354492,29.8799991607666
1773231962564722200,15.15472216796875,-4.559999942779541,-27.479999542236328,27.959999084472656
1773231962580711200,15.170711181640625,-3.8999998569488525,-29.099998474121094,25.3799991607666
1773231962596734500,15.186734375,-4.139999866485596,-29.760000228881836,23.51999855041504
1773231962612727300,15.202727294921875,-4.139999866485596,-30.599998474121094,22.439998626708984
1773231962628716000,15.218716064453124,-3.359999895095825,-32.279998779296875,20.760000228881836
1773231962644738000,15.234738037109375,-3,-33.05999755859375,18.600000381469727
1773231962660728300,15.250728271484375,-3,-33.65999984741211,16.920000076293945
1773231962676719600,15.2667197265625,-2.5799999237060547,-34.20000076293945,15.359999656677246
1773231962692712200,15.282712158203125,-2.5799999237060547,-34.439998626708984,14.15999984741211
1773231962708732700,15.298732666015624,-2.5199999809265137,-35.34000015258789,13.4399995803833
1773231962724724200,15.31472412109375,-2.6399998664855957,-35.939998626708984,12.779999732971191
1773231962740716300,15.33071630859375,-3.359999895095825,-36,12
1773231962756737300,15.3467373046875,-3.119999885559082,-35.459999084472656,11.15999984741211
1773231962772729300,15.362729248046875,-2.4600000381469727,-35.57999801635742,11.09999942779541
1773231962788721400,15.378721435546876,-2.3999998569488525,-36.119998931884766,11.9399995803833
1773231962804711200,15.394711181640625,-2.819999933242798,-35.63999938964844,12.960000038146973
1773231962820733000,15.41073291015625,-3.9599997997283936,-34.07999801635742,13.5
1773231962836723700,15.4267236328125,-4.380000114440918,-33.29999923706055,14.460000038146973
1773231962852716500,15.442716552734375,-4.559999942779541,-33.47999954223633,16.31999969482422
1773231962868738600,15.458738525390626,-5.400000095367432,-32.34000015258789,17.81999969482422
1773231962884727800,15.474727783203125,-5.699999809265137,-31.01999855041504,18.65999984741211
1773231962900718600,15.490718505859375,-5.159999847412109,-29.639999389648438,20.279998779296875
1773231962916710000,15.5067099609375,-5.460000038146973,-28.19999885559082,20.579999923706055
1773231962932734200,15.522734130859375,-6.179999828338623,-27.059999465942383,21.479999542236328
1773231962948723200,15.53872314453125,-6.659999847412109,-26.69999885559082,23.399999618530273
1773231962964714500,15.554714599609374,-7.859999656677246,-25.85999870300293,24.299999237060547
1773231962980735700,15.57073583984375,-8.579999923706055,-23.639999389648438,26.399999618530273
1773231962996727300,15.586727294921875,-8.399999618530273,-21.959999084472656,27.239999771118164
1773231963012718600,15.602718505859375,-8.579999923706055,-20.399999618530273,27.479999542236328
1773231963028710100,15.618710205078125,-8.880000114440918,-18.959999084472656,28.31999969482422
1773231963044733000,15.63473291015625,-9.059999465942383,-18.239999771118164,29.279998779296875
1773231963060722700,15.65072265625,-9.539999961853027,-16.5,30.899999618530273
1773231963076715000,15.666715087890625,-10.139999389648438,-14.460000038146973,31.920000076293945
1773231963092738600,15.682738525390626,-10.319999694824219,-12.84000015258789,32.21999740600586
1773231963108726500,15.6987265625,-10.380000114440918,-10.619999885559082,31.739999771118164
1773231963124719000,15.714718994140625,-10.979999542236328,-9.479999542236328,32.279998779296875
1773231963140708600,15.73070849609375,-11.399999618530273,-8.399999618530273,32.7599983215332
1773231963156731000,15.74673095703125,-12.239999771118164,-6.899999618530273,32.81999969482422
1773231963172724200,15.76272412109375,-12.479999542236328,-6,33.119998931884766
1773231963188713000,15.778712890625,-12.719999313354492,-4.799999713897705,32.81999969482422
1773231963204734700,15.794734619140625,-13.079999923706055,-3.240000009536743,33
1773231963220726800,15.810726806640625,-13.739999771118164,-2.0399999618530273,33.119998931884766
1773231963236718800,15.82671875,-14.519999504089355,-1.5,32.81999969482422
1773231963252710000,15.8427099609375,-14.399999618530273,-0.29999998211860657,32.459999084472656
1773231963268731100,15.858731201171874,-14.880000114440918,0.8399999737739563,32.459999084472656
1773231963284722200,15.87472216796875,-14.460000038146973,0.8399999737739563,32.57999801635742
1773231963300713000,15.890712890625,-14.579999923706055,1.4399999380111694,32.57999801635742
1773231963316736000,15.906736083984375,-15.359999656677246,1.9799998998641968,32.15999984741211
1773231963332728000,15.92272802734375,-15.839999198913574,1.0799999237060547,31.619998931884766
1773231963348717800,15.9387177734375,-16.3799991607666,-0.6599999666213989,31.31999969482422
1773231963364709000,15.954709228515625,-15.899999618530273,-1.5,31.5
1773231963380730600,15.970730712890624,-15.65999984741211,-1.7999999523162842,31.619998931884766
1773231963396723500,15.986723388671875,-15.239999771118164,-3.240000009536743,31.5
1773231963412715500,16.002715576171877,-14.639999389648438,-4.559999942779541,31.559999465942383
1773231963428735500,16.018735595703124,-14.34000015258789,-5.039999961853027,31.079999923706055
1773231963444725000,16.03472509765625,-13.799999237060547,-6.299999713897705,30.239999771118164
1773231963460717000,16.050717041015623,-12.84000015258789,-8.880000114440918,30.059999465942383
1773231963476708400,16.066708251953123,-12.359999656677246,-10.800000190734863,29.459999084472656
1773231963492732000,16.08273193359375,-12.65999984741211,-11.880000114440918,28.739999771118164
1773231963508721400,16.098721435546874,-13.079999923706055,-14.15999984741211,28.19999885559082
1773231963524711700,16.114711669921874,-13.199999809265137,-15.839999198913574,26.69999885559082
1773231963540733000,16.13073291015625,-12.179999351501465,-16.85999870300293,24.899999618530273
1773231963556724700,16.146724853515625,-11.75999927520752,-18.35999870300293,23.939998626708984
1773231963572718800,16.16271875,-11.699999809265137,-19.739999771118164,22.739999771118164
1773231963588739300,16.1787392578125,-11.519999504089355,-21.239999771118164,21.239999771118164
1773231963604731000,16.19473095703125,-11.34000015258789,-23.03999900817871,19.979999542236328
1773231963620720600,16.210720703125,-10.920000076293945,-24.84000015258789,18.600000381469727
1773231963636711000,16.2267109375,-10.619999885559082,-26.219999313354492,17.34000015258789
1773231963652735700,16.24273583984375,-9.84000015258789,-26.81999969482422,16.440000534057617
1773231963668725500,16.2587255859375,-9.179999351501465,-27.420000076293945,15.899999618530273
1773231963684715000,16.274715087890623,-8.760000228881836,-27.959999084472656,14.880000114440918
1773231963700737000,16.290737060546874,-8.519999504089355,-28.19999885559082,13.559999465942383
1773231963716727800,16.306727783203126,-9.119999885559082,-28.68000030517578,12.65999984741211
1773231963732722200,16.32272216796875,-8.760000228881836,-28.31999969482422,12.479999542236328
1773231963748713200,16.338713134765626,-9.179999351501465,-28.559999465942383,12.779999732971191
1773231963764735500,16.354735595703126,-10.380000114440918,-28.739999771118164,11.880000114440918
1773231963780723500,16.370723388671873,-10.019999504089355,-28.559999465942383,11.279999732971191
1773231963796714800,16.38671484375,-9.300000190734863,-28.079999923706055,11.699999809265137
1773231963812739000,16.402739013671876,-9.539999961853027,-27.899999618530273,11.699999809265137
1773231963828728300,16.418728271484376,-10.559999465942383,-27.599998474121094,12.119999885559082
1773231963844720000,16.43472021484375,-11.819999694824219,-26.69999885559082,12.779999732971191
1773231963860711200,16.450711181640624,-12.59999942779541,-25.739999771118164,13.739999771118164
1773231963876732700,16.466732666015623,-12.65999984741211,-24.84000015258789,14.460000038146973
1773231963892723200,16.48272314453125,-12.960000038146973,-24.719999313354492,16.19999885559082
1773231963908714800,16.49871484375,-13.079999923706055,-23.34000015258789,17.459999084472656
1773231963924736800,16.51473681640625,-13.5,-21.479999542236328,17.579999923706055
1773231963940729900,16.530729736328126,-13.920000076293945,-21.18000030517578,18.53999900817871
1773231963956719000,16.546718994140626,-14.039999961853027,-21.35999870300293,19.31999969482422
1773231963972725200,16.562725341796874,-14.880000114440918,-20.34000015258789,19.68000030517578
1773231963988732400,16.578732421875,-15.179999351501465,-18.53999900817871,20.03999900817871
1773231964004723200,16.59472314453125,-14.399999618530273,-17.760000228881836,20.639999389648438
1773231964020714800,16.61071484375,-14.579999923706055,-17.15999984741211,21.119998931884766
1773231964036737000,16.626737060546876,-15.65999984741211,-15.960000038146973,21.600000381469727
1773231964052728000,16.64272802734375,-15.65999984741211,-14.460000038146973,22.139999389648438
1773231964068717600,16.658717529296876,-14.699999809265137,-13.199999809265137,23.219999313354492
1773231964084710000,16.6747099609375,-14.9399995803833,-11.9399995803833,24.18000030517578
1773231964100731100,16.690731201171875,-15.420000076293945,-11.15999984741211,24.84000015258789
1773231964116723500,16.706723388671875,-15.359999656677246,-9.59999942779541,25.01999855041504
1773231964132727600,16.7227275390625,-15.299999237060547,-8.09999942779541,25.260000228881836
1773231964148748500,16.73874853515625,-15.299999237060547,-7.37999963760376,25.85999870300293
1773231964164738300,16.75473828125,-15.479999542236328,-5.940000057220459,26.69999885559082
1773231964180730000,16.770730224609373,-15.839999198913574,-4.859999656677246,26.8799991607666
1773231964196721400,16.786721435546873,-15.65999984741211,-4.199999809265137,25.920000076293945
1773231964212743400,16.802743408203124,-15.479999542236328,-3.419999837875366,25.68000030517578
1773231964228735000,16.81873486328125,-16.079999923706055,-2.6399998664855957,25.85999870300293
1773231964244726500,16.8347265625,-16.85999870300293,-1.9199999570846558,25.619998931884766
1773231964260746800,16.850746826171875,-16.3799991607666,-0.6599999666213989,25.559999465942383
1773231964276740000,16.866739990234375,-16.559999465942383,-0.05999999865889549,25.559999465942383
1773231964292732200,16.882732177734376,-17.279998779296875,-0.47999998927116394,25.439998626708984
1773231964308750800,16.898750732421874,-17.15999984741211,-1.1399999856948853,25.3799991607666
1773231964324742100,16.9147421875,-17.81999969482422,-1.1999999284744263,25.3799991607666
1773231964340733400,16.9307333984375,-17.279998779296875,-1.1399999856948853,25.559999465942383
1773231964356724500,16.946724365234374,-16.619998931884766,-2.5199999809265137,25.3799991607666
1773231964372748000,16.962748046875,-16.3799991607666,-4.380000114440918,25.5
1773231964388739800,16.97873974609375,-16.260000228881836,-4.980000019073486,26.099998474121094
1773231964404729600,16.9947294921875,-15.899999618530273,-5.639999866485596,26.34000015258789
1773231964420752100,17.010752197265624,-15.960000038146973,-7.679999828338623,26.34000015258789
1773231964436743000,17.026742919921876,-16.079999923706055,-9.420000076293945,26.099998474121094
1773231964452735200,17.0427353515625,-15.59999942779541,-10.019999504089355,26.15999984741211
1773231964468727300,17.058727294921876,-15.539999961853027,-11.279999732971191,25.85999870300293
1773231964484747500,17.07474755859375,-15.899999618530273,-13.019999504089355,24.959999084472656
1773231964500736800,17.09073681640625,-16.19999885559082,-14.579999923706055,24.239999771118164
1773231964516728600,17.106728515625,-16.5,-16.440000534057617,23.8799991607666
1773231964532721400,17.122721435546875,-16.3799991607666,-18.299999237060547,23.51999855041504
1773231964548741000,17.1387412109375,-15.719999313354492,-20.100000381469727,22.3799991607666
1773231964564733200,17.154733154296874,-14.9399995803833,-22.3799991607666,21.779998779296875
1773231964580724500,17.170724365234374,-13.739999771118164,-23.8799991607666,21.479999542236328
1773231964596745700,17.186745849609373,-12.960000038146973,-25.739999771118164,20.459999084472656
1773231964612739300,17.2027392578125,-12.119999885559082,-27.35999870300293,18.84000015258789
1773231964628729000,17.21872900390625,-10.5,-27.599998474121094,17.279998779296875
1773231964644750800,17.234750732421876,-9.059999465942383,-28.68000030517578,15.65999984741211
1773231964660741000,17.2507412109375,-8.399999618530273,-30.779998779296875,15.179999351501465
1773231964676734500,17.266734375,-7.139999866485596,-31.559999465942383,15.239999771118164
1773231964692725800,17.282725830078125,-6.119999885559082,-31.31999969482422,14.699999809265137
1773231964708745700,17.298745849609375,-5.339999675750732,-31.739999771118164,13.619999885559082
1773231964724736500,17.314736572265623,-5.039999961853027,-31.739999771118164,12.84000015258789
1773231964740727800,17.330727783203123,-5.099999904632568,-31.559999465942383,12.719999313354492
1773231964756749600,17.34674951171875,-4.440000057220459,-32.21999740600586,12.179999351501465
1773231964772713200,17.362713134765624,-4.139999866485596,-32.63999938964844,12.420000076293945
1773231964788734000,17.37873388671875,-4.559999942779541,-32.34000015258789,13.25999927520752
1773231964804723500,17.394723388671874,-4.859999656677246,-31.799999237060547,13.679999351501465
1773231964820746200,17.410746337890625,-4.559999942779541,-30.719999313354492,13.619999885559082
1773231964836736000,17.426736083984373,-5.279999732971191,-30.65999984741211,14.09999942779541
1773231964852728000,17.44272802734375,-5.460000038146973,-29.760000228881836,14.9399995803833
1773231964868748300,17.458748291015624,-4.980000019073486,-28.68000030517578,15.719999313354492
1773231964884741000,17.4747412109375,-4.920000076293945,-28.68000030517578,17.579999923706055
1773231964900732400,17.490732421875,-5.039999961853027,-27.719999313354492,19.079999923706055
1773231964916722700,17.50672265625,-4.739999771118164,-25.979999542236328,18.959999084472656
1773231964932745500,17.522745361328123,-4.799999713897705,-24.959999084472656,19.739999771118164
1773231964948736800,17.53873681640625,-5.940000057220459,-25.01999855041504,21.18000030517578
1773231964964727300,17.554727294921875,-5.819999694824219,-24.35999870300293,21.959999084472656
1773231964980750000,17.57075,-5.039999961853027,-22.920000076293945,22.979999542236328
1773231964996739600,17.586739501953126,-4.859999656677246,-21.600000381469727,24.35999870300293
1773231965012733400,17.6027333984375,-5.699999809265137,-19.739999771118164,25.31999969482422
1773231965028723200,17.61872314453125,-6,-18.959999084472656,26.099998474121094
1773231965044744000,17.634743896484373,-5.87999963760376,-19.079999923706055,26.69999885559082
1773231965060735200,17.6507353515625,-5.460000038146973,-17.03999900817871,26.8799991607666
1773231965076727600,17.6667275390625,-6.119999885559082,-15.65999984741211,27.899999618530273
1773231965092751000,17.682751220703125,-7.319999694824219,-15.420000076293945,28.5
1773231965108741000,17.6987412109375,-6.839999675750732,-13.5,28.5
1773231965124730400,17.71473046875,-6.659999847412109,-11.579999923706055,29.15999984741211
1773231965140724500,17.730724365234376,-7.019999980926514,-10.4399995803833,30
1773231965156745700,17.746745849609376,-7.619999885559082,-8.880000114440918,30.53999900817871
1773231965172737800,17.76273779296875,-7.259999752044678,-8.039999961853027,30.35999870300293
1773231965188728800,17.778728759765624,-6.960000038146973,-6.960000038146973,29.8799991607666
1773231965204750300,17.794750244140626,-7.799999713897705,-5.099999904632568,30.119998931884766
1773231965220739600,17.810739501953126,-8.09999942779541,-3.7799999713897705,30.899999618530273
1773231965236730400,17.82673046875,-8.039999961853027,-3.419999837875366,31.5
1773231965252724000,17.842723876953126,-7.619999885559082,-3.059999942779541,31.31999969482422
1773231965268745700,17.858745849609374,-6.480000019073486,-2.4600000381469727,31.079999923706055
1773231965284734500,17.874734375,-6.179999828338623,-2.0399999618530273,30.84000015258789
1773231965300727000,17.89072705078125,-5.940000057220459,-1.5,30.599998474121094
1773231965316747300,17.906747314453124,-5.759999752044678,-1.8600000143051147,30.53999900817871
1773231965332739000,17.922739013671876,-5.460000038146973,-2.1599998474121094,30.84000015258789
1773231965348731400,17.9387314453125,-4.619999885559082,-1.7400000095367432,31.31999969482422
1773231965364752600,17.954752685546875,-4.019999980926514,-2.6399998664855957,31.31999969482422
1773231965380742400,17.970742431640623,-3.059999942779541,-4.319999694824219,30.84000015258789
1773231965396736000,17.986736083984376,-2.0999999046325684,-5.21999979019165,30.65999984741211
1773231965412727600,18.0027275390625,-1.9199999570846558,-6.359999656677246,30.299999237060547
1773231965428749600,18.01874951171875,-1.559999942779541,-8.519999504089355,30.059999465942383
1773231965444740000,18.034739990234375,-0.7199999690055847,-10.019999504089355,30
1773231965460731100,18.050731201171875,-0.41999998688697815,-10.979999542236328,28.559999465942383
1773231965476722400,18.066722412109375,-0.23999999463558197,-12.059999465942383,27.299999237060547
1773231965492743700,18.08274365234375,-0.6599999666213989,-13.5,26.81999969482422
1773231965508733200,18.098733154296873,-1.2599999904632568,-14.880000114440918,26.639999389648438
1773231965524725200,18.114725341796873,-1.3799999952316284,-15.899999618530273,26.219999313354492
1773231965540747800,18.130747802734376,-0.35999998450279236,-17.279998779296875,24.65999984741211
1773231965556738000,18.146738037109376,0.5399999618530273,-18.479999542236328,23.8799991607666
1773231965572728300,18.162728271484376,0.47999998927116394,-19.619998931884766,23.279998779296875
1773231965588721200,18.17872119140625,0.5999999642372131,-20.69999885559082,22.079999923706055
1773231965604743200,18.1947431640625,0.6599999666213989,-21.719999313354492,20.459999084472656
1773231965620733000,18.21073291015625,0.35999998450279236,-22.739999771118164,19.439998626708984
1773231965636725200,18.226725341796875,0.11999999731779099,-23.219999313354492,18.899999618530273
1773231965652747800,18.242747802734375,0.8999999761581421,-23.939998626708984,17.579999923706055
1773231965668739800,18.25873974609375,1.3199999332427979,-24.600000381469727,16.68000030517578
1773231965684729000,18.27472900390625,0.5999999642372131,-25.5,16.079999923706055
1773231965700752000,18.290751953125,0.5399999618530273,-26.399999618530273,14.819999694824219
1773231965716741000,18.3067412109375,0.8999999761581421,-26.459999084472656,14.15999984741211
1773231965732734000,18.32273388671875,0.47999998927116394,-26.69999885559082,13.739999771118164
1773231965748723500,18.338723388671873,-0.5399999618530273,-26.459999084472656,13.019999504089355
1773231965764745700,18.354745849609376,-1.3799999952316284,-25.979999542236328,13.559999465942383
1773231965780737500,18.370737548828124,-1.6200000047683716,-25.439998626708984,14.219999313354492
1773231965796729300,18.386729248046876,-1.6200000047683716,-25.5,13.679999351501465
1773231965812750800,18.402750732421875,-1.8600000143051147,-26.219999313354492,14.039999961853027
1773231965828742700,18.41874267578125,-2.6399998664855957,-24.899999618530273,14.699999809265137
1773231965844734700,18.434734619140624,-3.059999942779541,-24.53999900817871,15.420000076293945
1773231965860723200,18.45072314453125,-3.359999895095825,-25.260000228881836,16.619998931884766
1773231965876747000,18.4667470703125,-3,-23.81999969482422,17.520000457763672
1773231965892737500,18.482737548828126,-2.759999990463257,-22.619998931884766,18.719999313354492
1773231965908727300,18.498727294921874,-3.419999837875366,-22.31999969482422,19.3799991607666
1773231965924748500,18.51474853515625,-3.119999885559082,-21.779998779296875,19.260000228881836
1773231965940740900,18.530740966796873,-1.9799998998641968,-20.760000228881836,19.31999969482422
1773231965956733400,18.5467333984375,-2.0399999618530273,-19.799999237060547,20.279998779296875
1773231965972724500,18.562724365234374,-2.0399999618530273,-18.719999313354492,21.84000015258789
1773231965988744200,18.578744140625,-1.5,-18,23.34000015258789
1773231966004738000,18.594738037109376,-1.6200000047683716,-17.760000228881836,23.939998626708984
1773231966020727000,18.61072705078125,-1.559999942779541,-16.3799991607666,23.81999969482422
1773231966036748500,18.62674853515625,-1.8600000143051147,-14.460000038146973,24.18000030517578
1773231966052742700,18.64274267578125,-1.9199999570846558,-13.679999351501465,24.65999984741211
1773231966068732700,18.658732666015624,-1.3799999952316284,-12.239999771118164,25.5
1773231966084724000,18.674723876953124,-0.8999999761581421,-10.4399995803833,26.03999900817871
1773231966100745000,18.690744873046874,-0.47999998927116394,-9.84000015258789,26.219999313354492
1773231966116735700,18.70673583984375,-0.5399999618530273,-8.220000267028809,27.239999771118164
1773231966132728300,18.722728271484375,-0.47999998927116394,-6.899999618530273,27.84000015258789
1773231966148748500,18.73874853515625,-0.8399999737739563,-6.359999656677246,27.119998931884766
1773231966164740000,18.754739990234373,-0.8399999737739563,-5.159999847412109,27.299999237060547
1773231966180731600,18.770731689453125,-1.3199999332427979,-4.019999980926514,28.31999969482422
1773231966196722200,18.78672216796875,-0.9599999785423279,-3.6599998474121094,28.19999885559082
1773231966212744400,18.802744384765624,-0.17999999225139618,-3.5399999618530273,27.53999900817871
1773231966228734500,18.818734375,-0.5999999642372131,-2.700000047683716,27.299999237060547
1773231966244727300,18.834727294921876,-0.9599999785423279,-2.3999998569488525,27.719999313354492
1773231966260747800,18.850747802734375,-1.0199999809265137,-2.819999933242798,28.139999389648438
1773231966276739600,18.866739501953123,-0.47999998927116394,-2.819999933242798,27.899999618530273
1773231966292730600,18.882730712890623,0.29999998211860657,-2.819999933242798,27.599998474121094
1773231966308723200,18.89872314453125,0.05999999865889549,-3.179999828338623,27.53999900817871
1773231966324744700,18.91474462890625,-0.9599999785423279,-3.8399999141693115,27.18000030517578
1773231966340734500,18.930734375,-0.41999998688697815,-4.619999885559082,26.51999855041504
1773231966356726300,18.946726318359374,0.23999999463558197,-5.039999961853027,26.279998779296875
1773231966372750300,18.962750244140626,-0.17999999225139618,-5.639999866485596,26.15999984741211
1773231966388738600,18.978738525390625,-0.05999999865889549,-7.37999963760376,25.979999542236328
1773231966404730000,18.994730224609373,-0.11999999731779099,-9,25.68000030517578
1773231966420752400,19.01075244140625,0.23999999463558197,-10.079999923706055,24.53999900817871
1773231966436743700,19.02674365234375,0.7199999690055847,-11.219999313354492,23.939998626708984
1773231966452735000,19.04273486328125,0.05999999865889549,-11.699999809265137,23.279998779296875
1773231966468725500,19.0587255859375,0.41999998688697815,-13.019999504089355,22.31999969482422
1773231966484746500,19.07474658203125,0.8999999761581421,-14.519999504089355,21.84000015258789
1773231966500740400,19.090740234375,1.1399999856948853,-15.719999313354492,20.939998626708984
1773231966516731600,19.106731689453124,1.9799998998641968,-16.85999870300293,19.559999465942383
1773231966532723200,19.12272314453125,2.2200000286102295,-17.459999084472656,18.65999984741211
1773231966548745000,19.138744873046875,2.2200000286102295,-18.420000076293945,18.35999870300293
1773231966564736300,19.154736328125,2.0999999046325684,-19.260000228881836,17.639999389648438
1773231966580724500,19.170724365234374,2.2799999713897705,-18.959999084472656,17.03999900817871
1773231966596747300,19.186747314453125,2.93999981880188,-19.31999969482422,16.079999923706055
1773231966612740600,19.20274072265625,3.7799999713897705,-19.85999870300293,14.519999504089355
1773231966628731000,19.21873095703125,4.440000057220459,-20.219999313354492,13.859999656677246
1773231966644752600,19.234752685546876,4.739999771118164,-20.639999389648438,13.4399995803833
1773231966660741600,19.25074169921875,5.159999847412109,-20.15999984741211,12.420000076293945
1773231966676733200,19.266733154296876,5.639999866485596,-19.979999542236328,12.479999542236328
1773231966692726500,19.2827265625,6.179999828338623,-20.520000457763672,12.179999351501465
1773231966708747500,19.29874755859375,6.359999656677246,-20.34000015258789,11.9399995803833
1773231966724737500,19.314737548828123,5.819999694824219,-19.739999771118164,13.079999923706055
1773231966740728300,19.330728271484375,5.159999847412109,-19.920000076293945,12.899999618530273
1773231966756751400,19.34675146484375,4.739999771118164,-19.139999389648438,13.319999694824219
1773231966772743200,19.3627431640625,4.380000114440918,-18.299999237060547,14.15999984741211
1773231966788734500,19.378734375,3.8399999141693115,-18.84000015258789,13.679999351501465
1773231966804723500,19.394723388671874,3.6599998474121094,-18.059999465942383,14.09999942779541
1773231966820745200,19.4107451171875,3.7799999713897705,-16.5,15
1773231966836736500,19.426736572265625,3.179999828338623,-15.899999618530273,15.719999313354492
1773231966852164600,19.44216455078125,2.5199999809265137,-15.539999961853027,15.299999237060547
1773231966868751400,19.45875146484375,2.6399998664855957,-15.119999885559082,15.65999984741211
1773231966884741000,19.4747412109375,2.879999876022339,-14.09999942779541,16.3799991607666
1773231966900732700,19.490732666015624,3.240000009536743,-12.719999313354492,17.100000381469727
1773231966916724500,19.506724365234376,3.359999895095825,-12.119999885559082,17.81999969482422
1773231966932748300,19.522748291015624,2.879999876022339,-11.399999618530273,18.65999984741211
1773231966948736500,19.538736572265623,2.819999933242798,-10.559999465942383,19.079999923706055
1773231966964727800,19.554727783203123,2.759999990463257,-9.239999771118164,19.3799991607666
1773231966980749800,19.570749755859374,2.2799999713897705,-8.15999984741211,19.19999885559082
1773231966996741400,19.586741455078126,1.2599999904632568,-7.619999885559082,19.739999771118164
1773231967012732700,19.602732666015626,1.7400000095367432,-7.019999980926514,19.979999542236328
1773231967028725200,19.618725341796875,2.2799999713897705,-5.579999923706055,19.619998931884766
1773231967044745000,19.634744873046873,1.3799999952316284,-3.5999999046325684,20.279998779296875
1773231967060737300,19.6507373046875,1.2599999904632568,-2.879999876022339,20.579999923706055
1773231967076727000,19.66672705078125,1.1399999856948853,-2.0999999046325684,20.639999389648438
1773231967092750300,19.682750244140625,0.41999998688697815,-1.3799999952316284,20.399999618530273
1773231967108739600,19.698739501953124,0.8999999761581421,-0.5999999642372131,20.579999923706055
1773231967124733000,19.71473291015625,1.3799999952316284,0.7799999713897705,20.579999923706055
1773231967140723200,19.73072314453125,0.35999998450279236,1.7999999523162842,19.85999870300293
1773231967156744000,19.746743896484375,-0.23999999463558197,2.2200000286102295,20.100000381469727
1773231967172738000,19.762738037109376,-0.05999999865889549,2.3399999141693115,19.559999465942383
1773231967188726500,19.7787265625,-0.23999999463558197,3,19.020000457763672
1773231967204749300,19.794749267578126,-0.5399999618530273,3.8399999141693115,19.979999542236328
1773231967220740900,19.810740966796875,-1.0199999809265137,4.440000057220459,20.15999984741211
1773231967236730600,19.826730712890626,-1.1399999856948853,5.099999904632568,19.559999465942383
1773231967252724500,19.842724365234375,0.11999999731779099,4.980000019073486,18.84000015258789
1773231967268745000,19.858744873046874,0.41999998688697815,5.039999961853027,18.84000015258789
1773231967284737800,19.87473779296875,-0.05999999865889549,5.21999979019165,19.19999885559082
1773231967300727000,19.89072705078125,0.17999999225139618,4.679999828338623,18.479999542236328
1773231967316749600,19.90674951171875,0,5.159999847412109,18.299999237060547
1773231967332740900,19.922740966796876,0.35999998450279236,5.819999694824219,18.779998779296875
1773231967348731600,19.938731689453125,0.17999999225139618,5.099999904632568,18.479999542236328
1773231967364754000,19.95475390625,-0.17999999225139618,4.079999923706055,18.53999900817871
1773231967380744700,19.97074462890625,-0.05999999865889549,4.380000114440918,18.899999618530273
1773231967396735700,19.98673583984375,-0.8999999761581421,5.099999904632568,18.779998779296875
1773231967412728300,20.002728271484376,-1.3199999332427979,4.559999942779541,18.899999618530273
1773231967428747800,20.018747802734374,-0.7199999690055847,2.700000047683716,19.3799991607666
1773231967444742100,20.0347421875,-1.0199999809265137,2.2200000286102295,19.439998626708984
1773231967460732000,20.05073193359375,-2.0999999046325684,2.6399998664855957,19.5
1773231967476722000,20.066721923828126,-2.0999999046325684,1.4399999380111694,20.459999084472656
1773231967492745200,20.0827451171875,-1.7999999523162842,0.47999998927116394,21
1773231967508736800,20.09873681640625,-2.2200000286102295,-0.11999999731779099,21.719999313354492
1773231967524728300,20.114728271484374,-2.819999933242798,-1.9199999570846558,22.5
1773231967540748000,20.130748046875,-3.240000009536743,-3.179999828338623,22.19999885559082
1773231967556740000,20.146739990234376,-3.179999828338623,-3.419999837875366,22.739999771118164
1773231967572732200,20.162732177734377,-3.5399999618530273,-4.619999885559082,23.579999923706055
1773231967588752600,20.178752685546876,-3.119999885559082,-6.179999828338623,24.059999465942383
1773231967604743000,20.194742919921875,-2.879999876022339,-7.259999752044678,24.719999313354492
1773231967620736000,20.210736083984376,-3.359999895095825,-7.799999713897705,25.439998626708984
1773231967636727000,20.22672705078125,-3.059999942779541,-8.9399995803833,25.01999855041504
1773231967652749300,20.242749267578127,-2.5199999809265137,-9.59999942779541,25.079999923706055
1773231967668737300,20.2587373046875,-2.1599998474121094,-9.960000038146973,26.219999313354492
1773231967684731100,20.274731201171875,-2.3399999141693115,-10.739999771118164,26.099998474121094
1773231967700752600,20.290752685546874,-2.3999998569488525,-10.800000190734863,26.03999900817871
1773231967716744200,20.306744140625,-1.9799998998641968,-10.319999694824219,26.939998626708984
1773231967732736500,20.322736572265626,-2.0399999618530273,-9.779999732971191,27.599998474121094
1773231967748725500,20.3387255859375,-2.700000047683716,-9.359999656677246,28.5
1773231967764746500,20.35474658203125,-2.5199999809265137,-8.519999504089355,28.920000076293945
1773231967780737500,20.370737548828124,-2.4600000381469727,-7.559999942779541,28.799999237060547
1773231967796729900,20.386729736328125,-3.359999895095825,-6.059999942779541,29.099998474121094
1773231967812752600,20.402752685546876,-4.5,-4.199999809265137,29.81999969482422
1773231967828743000,20.418742919921876,-4.679999828338623,-2.5199999809265137,30.65999984741211
1773231967844733200,20.434733154296875,-4.739999771118164,-0.8399999737739563,30.17999839782715
1773231967860724200,20.45072412109375,-4.859999656677246,1.3799999952316284,30.119998931884766
1773231967876745700,20.466745849609374,-5.279999732971191,2.879999876022339,30.479999542236328
1773231967892740400,20.482740234375,-5.940000057220459,4.559999942779541,30.17999839782715
1773231967908728600,20.498728515625,-6.420000076293945,6.059999942779541,29.8799991607666
1773231967924750600,20.51475048828125,-7.019999980926514,7.259999752044678,28.799999237060547
1773231967940743700,20.53074365234375,-7.440000057220459,9.179999351501465,28.260000228881836
1773231967956734000,20.54673388671875,-7.799999713897705,11.34000015258789,28.079999923706055
1773231967972726300,20.562726318359374,-7.37999963760376,12.59999942779541,27.35999870300293
1773231967988745200,20.5787451171875,-8.09999942779541,13.25999927520752,26.579999923706055
1773231968004738600,20.594738525390625,-8.9399995803833,14.579999923706055,25.979999542236328
1773231968020729000,20.61072900390625,-9.059999465942383,15,25.260000228881836
1773231968036751400,20.62675146484375,-9.239999771118164,15.65999984741211,24
1773231968052743000,20.642742919921876,-9.179999351501465,17.579999923706055,23.100000381469727
1773231968068733400,20.6587333984375,-9.420000076293945,18.84000015258789,22.799999237060547
1773231968084725500,20.6747255859375,-9.899999618530273,19.3799991607666,22.020000457763672
1773231968100746500,20.69074658203125,-10.139999389648438,21.059999465942383,20.8799991607666
1773231968116736500,20.706736572265626,-10.260000228881836,22.559999465942383,20.399999618530273
1773231968132729600,20.7227294921875,-10.319999694824219,22.979999542236328,19.979999542236328
1773231968148749600,20.73874951171875,-10.319999694824219,23.34000015258789,19.260000228881836
1773231968164742100,20.7547421875,-10.859999656677246,24.119998931884766,18.35999870300293
1773231968180731600,20.770731689453125,-10.920000076293945,25.260000228881836,18.479999542236328
1773231968196724500,20.786724365234374,-10.679999351501465,25.619998931884766,18.239999771118164
1773231968212747000,20.8027470703125,-11.279999732971191,26.099998474121094,17.520000457763672
1773231968228736300,20.818736328125,-12.119999885559082,27.35999870300293,17.459999084472656
1773231968244727000,20.83472705078125,-12.239999771118164,28.439998626708984,17.279998779296875
1773231968260748800,20.850748779296875,-12.300000190734863,28.799999237060547,17.15999984741211
1773231968276740400,20.866740234375,-12.719999313354492,28.739999771118164,17.03999900817871
1773231968292734000,20.88273388671875,-12.84000015258789,30.17999839782715,17.639999389648438
1773231968308724700,20.898724853515624,-13.799999237060547,31.260000228881836,19.139999389648438
1773231968324744400,20.914744384765626,-14.460000038146973,30.959999084472656,20.81999969482422
1773231968340738000,20.930738037109375,-14.15999984741211,30.599998474121094,22.739999771118164
1773231968356728300,20.946728271484375,-14.039999961853027,30.420000076293945,24.719999313354492
1773231968372750600,20.96275048828125,-13.559999465942383,30.119998931884766,27.65999984741211
1773231968388739300,20.9787392578125,-13.139999389648438,29.51999855041504,30.17999839782715
1773231968404732200,20.994732177734374,-12.84000015258789,28.85999870300293,32.939998626708984
1773231968420724000,21.010723876953126,-12.239999771118164,27.84000015258789,36.23999786376953
1773231968436743700,21.02674365234375,-11.75999927520752,26.15999984741211,39
