time,seconds_elapsed,z,y,x
1773231947712703000,0.302702880859375,-214.01998901367188,-146.45999145507812,3.7799999713897705
1773231947728726300,0.318726318359375,-222.72000122070312,-153.4199981689453,-4.679999828338623
1773231947744717600,0.334717529296875,-231.239990234375,-161.09999084472656,-13.139999389648438
1773231947760738300,0.35073828125,-230.6999969482422,-161.22000122070312,-12.899999618530273
1773231947776729600,0.3667294921875,-229.97999572753906,-160.6199951171875,-12.779999732971191
1773231947792723500,0.382723388671875,-229.9199981689453,-161.39999389648438,-12.779999732971191
1773231947808744700,0.39874462890625,-230.22000122070312,-161.75999450683594,-12.779999732971191
1773231947824735200,0.4147353515625,-229.97999572753906,-161.87998962402344,-13.139999389648438
1773231947840727300,0.430727294921875,-229.67999267578125,-161.8199920654297,-13.25999927520752
1773231947856718800,0.44671875,-229.79998779296875,-161.33999633789062,-13.4399995803833
1773231947872739600,0.462739501953125,-229.9199981689453,-161.51998901367188,-13.559999465942383
1773231947888729900,0.478729736328125,-229.79998779296875,-161.27999877929688,-13.4399995803833
1773231947904720600,0.494720703125,-229.13999938964844,-161.27999877929688,-13.739999771118164
1773231947920743200,0.5107431640625,-228.6599884033203,-161.75999450683594,-14.039999961853027
1773231947936734700,0.526734619140625,-229.25999450683594,-161.6999969482422,-13.859999656677246
1773231947952726800,0.542726806640625,-229.6199951171875,-161.8199920654297,-13.019999504089355
1773231947968717600,0.558717529296875,-229.55999755859375,-161.5800018310547,-12.65999984741211
1773231947984737500,0.574737548828125,-229.44000244140625,-160.67999267578125,-12.779999732971191
1773231948000729300,0.590729248046875,-229.0800018310547,-161.39999389648438,-12.300000190734863
1773231948016722200,0.60672216796875,-229.01998901367188,-161.75999450683594,-12.479999542236328
1773231948032743200,0.6227431640625,-229.01998901367188,-161.33999633789062,-12.59999942779541
1773231948048735000,0.63873486328125,-229.37998962402344,-160.8000030517578,-12.300000190734863
1773231948064725500,0.6547255859375,-229.67999267578125,-160.44000244140625,-12.059999465942383
1773231948080715300,0.67071533203125,-228.95999145507812,-160.5,-12.239999771118164
1773231948096737500,0.686737548828125,-228.77999877929688,-161.09999084472656,-12.65999984741211
1773231948112730000,0.702730224609375,-229.44000244140625,-161.75999450683594,-12.119999885559082
1773231948128720400,0.718720458984375,-229.6199951171875,-161.0399932861328,-11.819999694824219
1773231948144743200,0.7347431640625,-229.0800018310547,-160.5,-12.300000190734863
1773231948160734500,0.750734375,-228.6599884033203,-160.86000061035156,-12.65999984741211
1773231948176726300,0.766726318359375,-228.239990234375,-161.39999389648438,-12.84000015258789
1773231948192716500,0.782716552734375,-227.87998962402344,-161.22000122070312,-12.479999542236328
1773231948208738600,0.798738525390625,-227.45999145507812,-162,-12.179999351501465
1773231948224729000,0.81472900390625,-227.39999389648438,-162.66000366210938,-12.300000190734863
1773231948240721000,0.830720947265625,-227.51998901367188,-162.47999572753906,-12.359999656677246
1773231948256741600,0.84674169921875,-227.27999877929688,-161.87998962402344,-11.579999923706055
1773231948272733200,0.862733154296875,-227.45999145507812,-161.45999145507812,-11.09999942779541
1773231948288723500,0.878723388671875,-226.44000244140625,-162.3000030517578,-11.639999389648438
1773231948304716500,0.894716552734375,-225.5399932861328,-162.36000061035156,-11.519999504089355
1773231948320737800,0.91073779296875,-225.72000122070312,-162.77999877929688,-11.039999961853027
1773231948336729600,0.9267294921875,-225.29998779296875,-164.39999389648438,-11.219999313354492
1773231948352721000,0.942720947265625,-224.6999969482422,-164.45999145507812,-10.619999885559082
1773231948368742100,0.9587421875,-224.1599884033203,-164.27999877929688,-9.479999542236328
1773231948384734000,0.97473388671875,-224.1599884033203,-164.27999877929688,-9.179999351501465
1773231948400722200,0.99072216796875,-223.86000061035156,-164.16000366210938,-9.119999885559082
1773231948416714800,1.00671484375,-224.45999145507812,-165.1199951171875,-9
1773231948432737000,1.022737060546875,-224.8199920654297,-164.94000244140625,-8.34000015258789
1773231948448727300,1.038727294921875,-224.09999084472656,-163.97999572753906,-7.5
1773231948464720400,1.054720458984375,-224.63999938964844,-163.37998962402344,-7.319999694824219
1773231948480740600,1.07074072265625,-225.47999572753906,-163.25999450683594,-8.519999504089355
1773231948496733000,1.08673291015625,-225.47999572753906,-163.1999969482422,-8.9399995803833
1773231948512723500,1.102723388671875,-225.4199981689453,-163.1999969482422,-9.300000190734863
1773231948528714000,1.1187138671875,-225.47999572753906,-162.5399932861328,-10.380000114440918
1773231948544736500,1.134736572265625,-225.36000061035156,-162,-10.559999465942383
1773231948560726800,1.150726806640625,-226.0800018310547,-161.6999969482422,-10.920000076293945
1773231948576720600,1.166720703125,-226.3199920654297,-160.67999267578125,-11.819999694824219
1773231948592742000,1.182741943359375,-226.13999938964844,-160.37998962402344,-11.880000114440918
1773231948608731000,1.19873095703125,-226.37998962402344,-160.0800018310547,-11.399999618530273
1773231948624722700,1.21472265625,-226.6199951171875,-159.36000061035156,-11.219999313354492
1773231948640745200,1.2307451171875,-227.09999084472656,-159.59999084472656,-11.34000015258789
1773231948656735700,1.24673583984375,-227.39999389648438,-159.5399932861328,-11.399999618530273
1773231948672726800,1.262726806640625,-226.6199951171875,-159.239990234375,-11.09999942779541
1773231948688719400,1.27871923828125,-226.1999969482422,-160.01998901367188,-10.920000076293945
1773231948704740600,1.29474072265625,-226.5,-160.3199920654297,-10.979999542236328
1773231948720729900,1.310729736328125,-226.37998962402344,-160.37998962402344,-11.039999961853027
1773231948736724000,1.326723876953125,-226.0800018310547,-160.44000244140625,-10.739999771118164
1773231948752714500,1.342714599609375,-225.72000122070312,-160.1999969482422,-10.5
1773231948768734700,1.358734619140625,-225.5399932861328,-159.95999145507812,-10.559999465942383
1773231948784726500,1.3747265625,-225.77999877929688,-160.3199920654297,-11.09999942779541
1773231948800717300,1.39071728515625,-225.47999572753906,-160.67999267578125,-11.460000038146973
1773231948816740600,1.40674072265625,-225.4199981689453,-160.01998901367188,-11.15999984741211
1773231948832730400,1.42273046875,-225.36000061035156,-159.1199951171875,-11.75999927520752
1773231948848722000,1.438721923828125,-225.5399932861328,-158.94000244140625,-12.179999351501465
1773231948864741600,1.45474169921875,-225.47999572753906,-159.89999389648438,-12.059999465942383
1773231948880734500,1.470734375,-224.45999145507812,-160.3199920654297,-12.239999771118164
1773231948896727000,1.48672705078125,-223.739990234375,-159.77999877929688,-12.960000038146973
1773231948912717300,1.50271728515625,-223.9199981689453,-159.66000366210938,-12.960000038146973
1773231948928739000,1.518739013671875,-224.5800018310547,-159.77999877929688,-12.479999542236328
1773231948944731000,1.53473095703125,-224.27999877929688,-159.4199981689453,-12.119999885559082
1773231948960722200,1.55072216796875,-223.67999267578125,-159.66000366210938,-12.539999961853027
1773231948976743400,1.566743408203125,-223.0800018310547,-159.66000366210938,-13.4399995803833
1773231948992734200,1.582734130859375,-222.5399932861328,-159.66000366210938,-13.019999504089355
1773231949008726300,1.598726318359375,-221.8199920654297,-160.01998901367188,-13.139999389648438
1773231949024717300,1.61471728515625,-221.94000244140625,-160.25999450683594,-13.319999694824219
1773231949040739300,1.6307392578125,-222.4199981689453,-160.44000244140625,-12.960000038146973
1773231949056731100,1.646731201171875,-222.5399932861328,-160.0800018310547,-13.559999465942383
1773231949072722000,1.662721923828125,-223.01998901367188,-159.95999145507812,-13.559999465942383
1773231949088742700,1.67874267578125,-222.77999877929688,-159.5399932861328,-13.619999885559082
1773231949104733200,1.694733154296875,-222.4199981689453,-159.36000061035156,-13.859999656677246
1773231949120725500,1.7107255859375,-222.72000122070312,-159.239990234375,-14.15999984741211
1773231949136717300,1.72671728515625,-222.77999877929688,-158.27999877929688,-14.460000038146973
1773231949152738800,1.74273876953125,-221.63999938964844,-157.9199981689453,-14.579999923706055
1773231949168729900,1.758729736328125,-221.0399932861328,-159.1199951171875,-14.699999809265137
1773231949184721200,1.77472119140625,-221.63999938964844,-159.47999572753906,-14.34000015258789
1773231949200743000,1.790742919921875,-221.39999389648438,-159.05999755859375,-14.579999923706055
1773231949216734500,1.806734375,-220.79998779296875,-158.87998962402344,-14.880000114440918
1773231949232725000,1.82272509765625,-220.739990234375,-158.09999084472656,-14.34000015258789
1773231949248716500,1.838716552734375,-220.79998779296875,-157.97999572753906,-14.15999984741211
1773231949264735700,1.85473583984375,-221.51998901367188,-159.1199951171875,-14.09999942779541
1773231949280729600,1.8707294921875,-221.5800018310547,-159.72000122070312,-13.799999237060547
1773231949296721000,1.886720947265625,-221.51998901367188,-159.5399932861328,-13.5
1773231949312742700,1.90274267578125,-222.4199981689453,-158.8199920654297,-13.559999465942383
1773231949328733700,1.918733642578125,-222.1199951171875,-158.27999877929688,-13.25999927520752
1773231949344722700,1.93472265625,-221.0399932861328,-158.33999633789062,-13.079999923706055
1773231949360716500,1.950716552734375,-221.45999145507812,-158.63999938964844,-12.899999618530273
1773231949376736300,1.966736328125,-221.5800018310547,-158.51998901367188,-12.420000076293945
1773231949392728600,1.982728515625,-220.86000061035156,-157.8000030517578,-12.899999618530273
1773231949408719400,1.99871923828125,-221.1599884033203,-157.5,-12.84000015258789
1773231949424740000,2.014739990234375,-221.63999938964844,-157.8000030517578,-12.779999732971191
1773231949440733200,2.030733154296875,-221.5800018310547,-157.55999755859375,-13.079999923706055
1773231949456724200,2.04672412109375,-220.739990234375,-157.25999450683594,-13.019999504089355
1773231949472715000,2.062715087890625,-220.6199951171875,-157.86000061035156,-13.25999927520752
1773231949488737300,2.0787373046875,-220.6199951171875,-157.9199981689453,-12.960000038146973
1773231949504728600,2.094728515625,-220.44000244140625,-157.37998962402344,-12.479999542236328
1773231949520718300,2.11071826171875,-220.79998779296875,-157.13999938964844,-12.179999351501465
1773231949536742000,2.126741943359375,-221.27999877929688,-157.8000030517578,-12.239999771118164
1773231949552733000,2.14273291015625,-221.63999938964844,-157.5,-12.239999771118164
1773231949568721400,2.158721435546875,-220.97999572753906,-157.01998901367188,-12.239999771118164
1773231949584713500,2.17471337890625,-220.37998962402344,-157.01998901367188,-12.59999942779541
1773231949600736000,2.190736083984375,-220.97999572753906,-156.4199981689453,-12.719999313354492
1773231949616727000,2.20672705078125,-220.9199981689453,-156.72000122070312,-12.899999618530273
1773231949632719400,2.22271923828125,-220.13999938964844,-156.59999084472656,-12.719999313354492
1773231949648742000,2.238741943359375,-220.0800018310547,-156.5399932861328,-12.539999961853027
1773231949664732200,2.254732177734375,-219.77999877929688,-156.95999145507812,-12.779999732971191
1773231949680723500,2.270723388671875,-219.77999877929688,-156.77999877929688,-12.479999542236328
1773231949696714200,2.28671435546875,-220.739990234375,-156.59999084472656,-11.9399995803833
1773231949712736500,2.302736572265625,-220.86000061035156,-156.5399932861328,-11.9399995803833
1773231949728727600,2.3187275390625,-220.37998962402344,-156.05999755859375,-12.119999885559082
1773231949744717300,2.33471728515625,-220.0800018310547,-155.8199920654297,-12.239999771118164
1773231949760740000,2.350739990234375,-220.25999450683594,-155.5800018310547,-12.539999961853027
1773231949776732200,2.366732177734375,-220.0800018310547,-155.16000366210938,-12.119999885559082
1773231949792722200,2.38272216796875,-219.5399932861328,-155.5800018310547,-11.219999313354492
1773231949808743200,2.3987431640625,-219.95999145507812,-155.16000366210938,-12.059999465942383
1773231949824734700,2.414734619140625,-219.83999633789062,-154.9199981689453,-12.960000038146973
1773231949840727000,2.43072705078125,-219.47999572753906,-155.6999969482422,-12.119999885559082
1773231949856718300,2.44671826171875,-219.77999877929688,-156,-11.819999694824219
1773231949872738300,2.46273828125,-219.4199981689453,-155.8199920654297,-12.239999771118164
1773231949888730000,2.478730224609375,-219.1199951171875,-155.27999877929688,-12.719999313354492
1773231949904722000,2.494721923828125,-219.4199981689453,-155.39999389648438,-12.539999961853027
1773231949920743000,2.510742919921875,-219.47999572753906,-155.16000366210938,-12.779999732971191
1773231949936736300,2.526736328125,-218.63999938964844,-154.97999572753906,-13.019999504089355
1773231949952725800,2.542725830078125,-218.22000122070312,-155.51998901367188,-13.019999504089355
1773231949968717800,2.5587177734375,-218.45999145507812,-155.51998901367188,-13.079999923706055
1773231949984736500,2.574736572265625,-218.5800018310547,-155.6999969482422,-13.380000114440918
1773231950000730600,2.590730712890625,-218.33999633789062,-155.75999450683594,-13.619999885559082
1773231950016722000,2.606721923828125,-217.9199981689453,-155.09999084472656,-13.019999504089355
1773231950032743000,2.622742919921875,-218.22000122070312,-155.27999877929688,-12.84000015258789
1773231950048734500,2.638734375,-218.63999938964844,-154.9199981689453,-12.84000015258789
1773231950064725200,2.654725341796875,-218.5800018310547,-154.55999755859375,-13.319999694824219
1773231950080717000,2.670717041015625,-218.75999450683594,-154.9199981689453,-13.019999504089355
1773231950096739600,2.686739501953125,-219.239990234375,-155.22000122070312,-12.059999465942383
1773231950112729600,2.7027294921875,-218.63999938964844,-155.27999877929688,-12.359999656677246
1773231950128721000,2.718720947265625,-218.22000122070312,-154.97999572753906,-12.059999465942383
1773231950144742400,2.734742431640625,-218.51998901367188,-155.27999877929688,-11.460000038146973
1773231950160734200,2.750734130859375,-218.0399932861328,-155.16000366210938,-11.75999927520752
1773231950176725500,2.7667255859375,-217.37998962402344,-154.9199981689453,-11.819999694824219
1773231950192717000,2.782717041015625,-216.95999145507812,-156.05999755859375,-12.119999885559082
1773231950208738300,2.79873828125,-216.83999633789062,-156.239990234375,-12
1773231950224729600,2.8147294921875,-216.6599884033203,-155.5800018310547,-11.75999927520752
1773231950240720600,2.830720703125,-215.63999938964844,-156.05999755859375,-11.519999504089355
1773231950256742700,2.84674267578125,-215.51998901367188,-156,-11.039999961853027
1773231950272733700,2.862733642578125,-215.6999969482422,-156.239990234375,-10.679999351501465
1773231950288725200,2.878725341796875,-215.8199920654297,-156.66000366210938,-10.019999504089355
1773231950304714800,2.89471484375,-216.4199981689453,-156.5399932861328,-10.319999694824219
1773231950320737800,2.91073779296875,-216.4199981689453,-156.83999633789062,-10.920000076293945
1773231950336726800,2.926726806640625,-215.75999450683594,-157.0800018310547,-10.199999809265137
1773231950352719600,2.9427197265625,-215.22000122070312,-157.0800018310547,-9.899999618530273
1773231950368742000,2.958741943359375,-214.9199981689453,-156.89999389648438,-9.479999542236328
1773231950384733400,2.9747333984375,-215.5800018310547,-156.72000122070312,-9.359999656677246
1773231950400725000,2.99072509765625,-216.05999755859375,-156.4199981689453,-8.880000114440918
1773231950416716300,3.00671630859375,-215.63999938964844,-156.239990234375,-8.15999984741211
1773231950432734700,3.022734619140625,-215.5800018310547,-155.75999450683594,-9.059999465942383
1773231950448728600,3.038728515625,-215.0399932861328,-156.239990234375,-8.699999809265137
1773231950464717800,3.0547177734375,-215.22000122070312,-157.37998962402344,-7.199999809265137
1773231950480740400,3.070740234375,-216,-157.1999969482422,-6.960000038146973
1773231950496487200,3.086487060546875,-216.36000061035156,-157.44000244140625,-7.37999963760376
1773231950512724500,3.102724365234375,-216.47999572753906,-157.37998962402344,-6.599999904632568
1773231950528713200,3.118713134765625,-216.59999084472656,-156.72000122070312,-6.239999771118164
1773231950544736800,3.13473681640625,-216.29998779296875,-156.59999084472656,-5.579999923706055
1773231950560726500,3.1507265625,-216.47999572753906,-157.1999969482422,-4.259999752044678
1773231950576717800,3.1667177734375,-217.25999450683594,-157.67999267578125,-4.679999828338623
1773231950592739800,3.18273974609375,-217.1999969482422,-157.67999267578125,-4.799999713897705
1773231950608732200,3.198732177734375,-216.89999389648438,-156.72000122070312,-3.6599998474121094
1773231950624724200,3.21472412109375,-216.29998779296875,-156.95999145507812,-1.3799999952316284
1773231950640714800,3.23071484375,-216.72000122070312,-157.9199981689453,0.11999999731779099
1773231950656737300,3.2467373046875,-216.05999755859375,-157.8000030517578,1.0199999809265137
1773231950672727300,3.262727294921875,-215.22000122070312,-157.1999969482422,1.6200000047683716
1773231950688717800,3.2787177734375,-215.51998901367188,-157.8000030517578,2.6399998664855957
1773231950704741600,3.29474169921875,-214.86000061035156,-157.86000061035156,4.019999980926514
1773231950720730600,3.310730712890625,-214.37998962402344,-157.3199920654297,5.819999694824219
1773231950736722400,3.326722412109375,-214.79998779296875,-156.47999572753906,8.220000267028809
1773231950752713700,3.342713623046875,-215.0399932861328,-155.94000244140625,10.079999923706055
1773231950768735500,3.358735595703125,-215.39999389648438,-155.33999633789062,11.639999389648438
1773231950784726800,3.374726806640625,-214.97999572753906,-153.95999145507812,12.899999618530273
1773231950800718600,3.390718505859375,-215.8199920654297,-153.1199951171875,14.039999961853027
1773231950816740400,3.406740234375,-215.94000244140625,-151.6199951171875,15.719999313354492
1773231950832731400,3.4227314453125,-214.79998779296875,-149.45999145507812,17.34000015258789
1773231950848723000,3.438722900390625,-215.09999084472656,-148.37998962402344,19.439998626708984
1773231950864744200,3.454744140625,-214.44000244140625,-147.3000030517578,21.35999870300293
1773231950880735500,3.470735595703125,-213.29998779296875,-146.0399932861328,23.279998779296875
1773231950896725800,3.486725830078125,-212.27999877929688,-144.4199981689453,24.65999984741211
1773231950912716300,3.50271630859375,-211.01998901367188,-142.0800018310547,25.68000030517578
1773231950928738600,3.518738525390625,-210.83999633789062,-139.9199981689453,27.53999900817871
1773231950944730400,3.53473046875,-210.47999572753906,-138.1199951171875,28.799999237060547
1773231950960719600,3.5507197265625,-209.87998962402344,-136.37998962402344,29.15999984741211
1773231950976712200,3.566712158203125,-209.1599884033203,-134.33999633789062,29.279998779296875
1773231950992735000,3.58273486328125,-207.83999633789062,-132.47999572753906,29.51999855041504
1773231951008724700,3.598724853515625,-207.6599884033203,-131.45999145507812,30.239999771118164
1773231951024717600,3.614717529296875,-207.6599884033203,-130.86000061035156,31.01999855041504
1773231951040738300,3.63073828125,-207.72000122070312,-129.3000030517578,30.65999984741211
1773231951056730400,3.64673046875,-208.1999969482422,-128.45999145507812,30.479999542236328
1773231951072721200,3.66272119140625,-208.0800018310547,-128.27999877929688,30.84000015258789
1773231951088743700,3.67874365234375,-207.95999145507812,-127.97999572753906,30.420000076293945
1773231951104733700,3.694733642578125,-208.37998962402344,-126.65999603271484,29.760000228881836
1773231951120724500,3.710724365234375,-208.739990234375,-125.2199935913086,29.03999900817871
1773231951136717000,3.726717041015625,-208.6199951171875,-125.69999694824219,29.279998779296875
1773231951152739300,3.7427392578125,-208.5,-125.0999984741211,29.939998626708984
1773231951168727300,3.758727294921875,-209.1599884033203,-123.95999908447266,29.579999923706055
1773231951184721200,3.77472119140625,-209.39999389648438,-123.41999816894531,29.399999618530273
1773231951200743000,3.790742919921875,-208.97999572753906,-122.93999481201172,29.099998474121094
1773231951216734000,3.80673388671875,-208.44000244140625,-123.29999542236328,28.979999542236328
1773231951232725200,3.822725341796875,-208.86000061035156,-123.18000030517578,29.15999984741211
1773231951248715300,3.83871533203125,-209.45999145507812,-122.87999725341797,28.920000076293945
1773231951264738000,3.854738037109375,-209.39999389648438,-122.81999969482422,29.279998779296875
1773231951280726800,3.870726806640625,-210.29998779296875,-122.81999969482422,29.579999923706055
1773231951296720400,3.886720458984375,-211.13999938964844,-123.54000091552734,29.51999855041504
1773231951312742100,3.9027421875,-210.95999145507812,-124.07999420166016,29.219999313354492
1773231951328733000,3.91873291015625,-211.01998901367188,-124.43999481201172,28.739999771118164
1773231951344723200,3.93472314453125,-211.5,-125.81999969482422,28.619998931884766
1773231951360747000,3.9507470703125,-210.95999145507812,-127.37999725341797,28.5
1773231951376737300,3.9667373046875,-210.36000061035156,-129.36000061035156,29.399999618530273
1773231951392728800,3.982728759765625,-210.83999633789062,-131.87998962402344,29.760000228881836
1773231951408720100,3.99872021484375,-211.13999938964844,-133.1999969482422,28.739999771118164
1773231951424740600,4.01474072265625,-210.83999633789062,-135.3000030517578,28.139999389648438
1773231951440733400,4.0307333984375,-210.89999389648438,-137.75999450683594,27.899999618530273
1773231951456721700,4.0467216796875,-211.6199951171875,-139.86000061035156,27.299999237060547
1773231951472744700,4.06274462890625,-211.6199951171875,-141.72000122070312,26.459999084472656
1773231951488735700,4.07873583984375,-211.79998779296875,-143.5800018310547,26.03999900817871
1773231951504727600,4.0947275390625,-211.67999267578125,-145.67999267578125,24.239999771118164
1773231951520719600,4.1107197265625,-211.37998962402344,-147.83999633789062,23.03999900817871
1773231951536741600,4.12674169921875,-211.5,-149.5800018310547,22.31999969482422
1773231951552732400,4.142732421875,-210.5399932861328,-151.1999969482422,20.939998626708984
1773231951568723500,4.158723388671875,-210,-152.8199920654297,19.920000076293945
1773231951584715500,4.174715576171875,-210.17999267578125,-154.13999938964844,19.079999923706055
1773231951600736800,4.19073681640625,-210.239990234375,-155.0399932861328,18.18000030517578
1773231951616726800,4.206726806640625,-209.51998901367188,-155.87998962402344,16.920000076293945
1773231951632719400,4.22271923828125,-209.0399932861328,-156.77999877929688,16.739999771118164
1773231951648738300,4.23873828125,-208.97999572753906,-157.0800018310547,16.19999885559082
1773231951664731100,4.254731201171875,-208.44000244140625,-156.77999877929688,15.479999542236328
1773231951680722000,4.270721923828125,-208.0800018310547,-156.83999633789062,16.68000030517578
1773231951696714800,4.28671484375,-207.83999633789062,-157.739990234375,17.399999618530273
1773231951712736800,4.30273681640625,-207.1199951171875,-157.3199920654297,16.68000030517578
1773231951728726300,4.318726318359375,-207.239990234375,-156.5399932861328,16.31999969482422
1773231951744718300,4.33471826171875,-207.89999389648438,-156,17.399999618530273
1773231951760740400,4.350740234375,-207.6599884033203,-155.16000366210938,19.139999389648438
1773231951776730400,4.36673046875,-208.01998901367188,-154.6199951171875,19.85999870300293
1773231951792721700,4.3827216796875,-208.1999969482422,-153.4199981689453,20.520000457763672
1773231951808712400,4.39871240234375,-207.47999572753906,-151.97999572753906,21.479999542236328
1773231951824736000,4.414736083984375,-208.13999938964844,-150.95999145507812,22.920000076293945
1773231951840724500,4.430724365234375,-208.739990234375,-149.52000427246094,25.079999923706055
1773231951856718600,4.446718505859375,-207.83999633789062,-147.4199981689453,26.34000015258789
1773231951872739600,4.462739501953125,-208.25999450683594,-145.02000427246094,27.119998931884766
1773231951888731600,4.478731689453125,-208.67999267578125,-143.09999084472656,28.079999923706055
1773231951904721400,4.494721435546875,-208.97999572753906,-141.72000122070312,28.19999885559082
1773231951920743200,4.5107431640625,-210.1199951171875,-140.94000244140625,28.3799991607666
1773231951936734200,4.526734130859375,-210.05999755859375,-139.25999450683594,29.939998626708984
1773231951952726500,4.5427265625,-208.86000061035156,-137.16000366210938,31.079999923706055
1773231951968717600,4.558717529296875,-207.95999145507812,-136.02000427246094,30.65999984741211
1773231951984737800,4.57473779296875,-207.72000122070312,-134.8199920654297,30.53999900817871
1773231952000730400,4.59073046875,-207.6599884033203,-133.37998962402344,31.31999969482422
1773231952016722000,4.606721923828125,-208.44000244140625,-132.3000030517578,31.559999465942383
1773231952032744200,4.622744140625,-208.67999267578125,-130.8000030517578,31.739999771118164
1773231952048735200,4.6387353515625,-207.95999145507812,-129.1199951171875,31.67999839782715
1773231952064724500,4.654724365234375,-208.13999938964844,-127.73999786376953,31.439998626708984
1773231952080717300,4.67071728515625,-208.1999969482422,-125.69999694824219,31.5
1773231952096738000,4.686738037109375,-207.59999084472656,-123.89999389648438,31.439998626708984
1773231952112729300,4.702729248046875,-207.29998779296875,-123.29999542236328,31.01999855041504
1773231952128722000,4.718721923828125,-207.29998779296875,-122.63999938964844,30.719999313354492
1773231952144743200,4.7347431640625,-207.4199981689453,-121.5,30.53999900817871
1773231952160731600,4.750731689453125,-207.17999267578125,-120.36000061035156,30.719999313354492
1773231952176725800,4.766725830078125,-206.75999450683594,-119.2199935913086,30.479999542236328
1773231952192715000,4.782715087890625,-207,-118.37999725341797,29.69999885559082
1773231952208736500,4.798736572265625,-206.63999938964844,-117.5999984741211,29.51999855041504
1773231952224729900,4.814729736328125,-206.09999084472656,-116.39999389648438,29.51999855041504
1773231952240719000,4.830718994140625,-206.33999633789062,-115.97999572753906,29.81999969482422
1773231952256742400,4.846742431640625,-206.87998962402344,-116.33999633789062,29.34000015258789
1773231952272733400,4.8627333984375,-206.94000244140625,-115.91999816894531,28.799999237060547
1773231952288725200,4.878725341796875,-206.39999389648438,-115.6199951171875,29.099998474121094
1773231952304716800,4.894716796875,-206.75999450683594,-115.86000061035156,30.059999465942383
1773231952320738600,4.910738525390625,-206.6999969482422,-116.33999633789062,30.420000076293945
1773231952336729300,4.926729248046875,-206.87998962402344,-117.23999786376953,30.059999465942383
1773231952352720000,4.942719970703125,-207.72000122070312,-118.37999725341797,30
1773231952368739800,4.95873974609375,-207.77999877929688,-120.1199951171875,31.139999389648438
1773231952384732400,4.974732421875,-208.6199951171875,-122.0999984741211,32.040000915527344
1773231952400724200,4.99072412109375,-209.45999145507812,-123.36000061035156,32.040000915527344
1773231952416713000,5.006712890625,-210,-124.91999816894531,32.52000045776367
1773231952432737300,5.0227373046875,-210.59999084472656,-127.13999938964844,33
1773231952448727800,5.038727783203125,-210.5399932861328,-129.239990234375,32.57999801635742
1773231952464720000,5.054719970703125,-211.0800018310547,-132,32.34000015258789
1773231952480740400,5.070740234375,-211.67999267578125,-134.63999938964844,32.34000015258789
1773231952496730600,5.086730712890625,-211.79998779296875,-136.9199981689453,31.67999839782715
1773231952512723200,5.10272314453125,-211.44000244140625,-139.9199981689453,30.719999313354492
1773231952528715800,5.1187158203125,-211.44000244140625,-142.86000061035156,30
1773231952544736000,5.134736083984375,-211.6199951171875,-145.1999969482422,29.099998474121094
1773231952560726500,5.1507265625,-210.77999877929688,-146.63999938964844,28.5
1773231952576718300,5.16671826171875,-210.4199981689453,-148.13999938964844,28.260000228881836
1773231952592740400,5.182740234375,-209.87998962402344,-150.3000030517578,27.119998931884766
1773231952608733000,5.19873291015625,-209.0399932861328,-151.8000030517578,25.799999237060547
1773231952624722000,5.214721923828125,-208.25999450683594,-153.36000061035156,24.899999618530273
1773231952640714800,5.23071484375,-207.5399932861328,-154.97999572753906,24
1773231952656736800,5.24673681640625,-207.29998779296875,-155.16000366210938,23.69999885559082
1773231952672726000,5.26272607421875,-207.47999572753906,-155.09999084472656,23.939998626708984
1773231952688717000,5.278717041015625,-207.1199951171875,-155.75999450683594,23.639999389648438
1773231952704740600,5.29474072265625,-206.22000122070312,-156.05999755859375,23.279998779296875
1773231952720731000,5.31073095703125,-205.86000061035156,-156.47999572753906,23.03999900817871
1773231952736722000,5.326721923828125,-205.55999755859375,-156.66000366210938,23.760000228881836
1773231952752744700,5.34274462890625,-204.59999084472656,-155.33999633789062,24.600000381469727
1773231952768736500,5.358736572265625,-204.72000122070312,-154.0800018310547,25.079999923706055
1773231952784726800,5.374726806640625,-205.79998779296875,-153.77999877929688,26.03999900817871
1773231952800716500,5.390716552734375,-206.45999145507812,-152.75999450683594,27.119998931884766
1773231952816740400,5.406740234375,-205.79998779296875,-151.25999450683594,28.5
1773231952832730400,5.42273046875,-205.739990234375,-149.75999450683594,29.939998626708984
1773231952848723000,5.438722900390625,-206.51998901367188,-148.1999969482422,30.899999618530273
1773231952864713200,5.454713134765625,-206.45999145507812,-146.45999145507812,31.139999389648438
1773231952880734200,5.470734130859375,-206.87998962402344,-144.72000122070312,31.619998931884766
1773231952896727000,5.48672705078125,-207.6599884033203,-143.16000366210938,32.34000015258789
1773231952912717800,5.5027177734375,-207.83999633789062,-141.77999877929688,32.52000045776367
1773231952928738300,5.51873828125,-207.1199951171875,-140.87998962402344,33.05999755859375
1773231952944731600,5.534731689453125,-206.6999969482422,-139.02000427246094,33.540000915527344
1773231952960962800,5.550962890625,-206.5800018310547,-137.52000427246094,33.959999084472656
1773231952976649500,5.5666494140625,-206.63999938964844,-136.13999938964844,34.380001068115234
1773231952992641300,5.582641357421875,-206.94000244140625,-133.9199981689453,34.619998931884766
1773231953008662300,5.598662353515625,-207.6599884033203,-132.5399932861328,35.279998779296875
1773231953024654000,5.614654052734375,-207.17999267578125,-131.8199920654297,35.21999740600586
1773231953040675600,5.630675537109375,-207.59999084472656,-130.25999450683594,35.39999771118164
1773231953056668200,5.646668212890625,-208.13999938964844,-128.0399932861328,35.63999938964844
1773231953072658200,5.662658203125,-208.1999969482422,-126.18000030517578,35.34000015258789
1773231953088678400,5.678678466796875,-208.97999572753906,-124.97999572753906,35.099998474121094
1773231953104670500,5.69467041015625,-209.1599884033203,-124.0199966430664,34.13999938964844
1773231953120662000,5.710662109375,-208.97999572753906,-122.45999908447266,33.959999084472656
1773231953136653800,5.72665380859375,-208.739990234375,-121.07999420166016,33.540000915527344
1773231953152675300,5.74267529296875,-208.97999572753906,-120.18000030517578,33.18000030517578
1773231953168665000,5.7586650390625,-209.33999633789062,-118.43999481201172,33.41999816894531
1773231953184658400,5.774658447265625,-209.63999938964844,-117.18000030517578,32.63999938964844
1773231953200678400,5.790678466796875,-209.1599884033203,-116.15999603271484,32.040000915527344
1773231953216669700,5.806669677734375,-209.63999938964844,-115.13999938964844,31.739999771118164
1773231953232661800,5.822661865234375,-209.8199920654297,-115.31999969482422,31.920000076293945
1773231953248652800,5.83865283203125,-208.739990234375,-115.07999420166016,32.15999984741211
1773231953264674800,5.8546748046875,-208.79998779296875,-114.23999786376953,31.3799991607666
1773231953280664300,5.870664306640625,-209.0399932861328,-114.05999755859375,30.899999618530273
1773231953296656400,5.886656494140625,-208.55999755859375,-113.93999481201172,30.959999084472656
1773231953312679200,5.90267919921875,-208.0800018310547,-114.47999572753906,31.559999465942383
1773231953328669200,5.918669189453125,-208.44000244140625,-115.6199951171875,32.57999801635742
1773231953344661200,5.9346611328125,-208.1999969482422,-116.87999725341797,33.119998931884766
1773231953360651500,5.950651611328125,-207.4199981689453,-118.25999450683594,33.540000915527344
1773231953376671700,5.966671630859375,-207.36000061035156,-119.15999603271484,34.31999969482422
1773231953392664600,5.98266455078125,-207.05999755859375,-121.25999450683594,34.79999923706055
1773231953408657200,5.9986572265625,-206.45999145507812,-123.05999755859375,35.459999084472656
1773231953424678700,6.0146787109375,-206.27999877929688,-125.2199935913086,36.71999740600586
1773231953440668400,6.03066845703125,-206.45999145507812,-128.27999877929688,37.02000045776367
1773231953456660500,6.046660400390625,-206.27999877929688,-129.95999145507812,36.779998779296875
1773231953472650800,6.062650634765625,-206.22000122070312,-131.87998962402344,37.20000076293945
1773231953488673300,6.07867333984375,-206.22000122070312,-134.52000427246094,37.02000045776367
1773231953504665000,6.0946650390625,-205.9199981689453,-137.22000122070312,36.84000015258789
1773231953520655400,6.1106552734375,-205.55999755859375,-139.1999969482422,36.540000915527344
1773231953536677600,6.126677734375,-204.47999572753906,-141.95999145507812,36.18000030517578
1773231953552669200,6.142669189453125,-203.39999389648438,-143.87998962402344,35.57999801635742
1773231953568660200,6.15866015625,-203.1599884033203,-145.0800018310547,35.040000915527344
1773231953584650800,6.174650634765625,-202.55999755859375,-147.3000030517578,35.099998474121094
1773231953600671200,6.190671142578125,-201.77999877929688,-149.16000366210938,34.20000076293945
1773231953616662500,6.20666259765625,-200.8199920654297,-150.77999877929688,33.05999755859375
1773231953632653800,6.22265380859375,-199.86000061035156,-151.44000244140625,33.119998931884766
1773231953648675800,6.23867578125,-199.01998901367188,-152.33999633789062,33
1773231953664666600,6.25466650390625,-198.59999084472656,-153.3000030517578,31.5
1773231953680658400,6.270658447265625,-198.239990234375,-153.36000061035156,31.079999923706055
1773231953696649000,6.28664892578125,-197.5800018310547,-153.3000030517578,31.19999885559082
1773231953712671000,6.3026708984375,-197.6999969482422,-153.77999877929688,32.15999984741211
1773231953728662300,6.318662353515625,-197.1599884033203,-153.66000366210938,33
1773231953744652800,6.33465283203125,-196.01998901367188,-152.94000244140625,33
1773231953760673500,6.350673583984375,-195.72000122070312,-152.22000122070312,33.29999923706055
1773231953776666000,6.366666015625,-196.0800018310547,-151.1999969482422,33.23999786376953
1773231953792658000,6.382657958984375,-197.1599884033203,-150.59999084472656,34.31999969482422
1773231953808647400,6.3986474609375,-197.51998901367188,-149.16000366210938,35.39999771118164
1773231953824668700,6.414668701171875,-197.75999450683594,-147,36.779998779296875
1773231953840661500,6.43066162109375,-198.3000030517578,-145.02000427246094,37.619998931884766
1773231953856653800,6.44665380859375,-198.4199981689453,-143.33999633789062,37.2599983215332
1773231953872675000,6.462675048828125,-199.13999938964844,-141.89999389648438,37.91999816894531
1773231953888665900,6.478665771484375,-199.97999572753906,-140.5800018310547,38.279998779296875
1773231953904657700,6.49465771484375,-200.94000244140625,-139.13999938964844,38.459999084472656
1773231953920678000,6.510677978515625,-201.5399932861328,-137.22000122070312,39
1773231953936668400,6.52666845703125,-201.77999877929688,-135.47999572753906,39.119998931884766
1773231953952660700,6.54266064453125,-202.13999938964844,-134.0399932861328,39
1773231953968651500,6.558651611328125,-202.5,-132.1199951171875,39.540000915527344
1773231953984672500,6.574672607421875,-202.86000061035156,-130.739990234375,39.89999771118164
1773231954000664600,6.59066455078125,-203.39999389648438,-129.83999633789062,39.41999816894531
1773231954016547000,6.606547119140625,-203.1599884033203,-127.79999542236328,39.65999984741211
1773231954032678700,6.6226787109375,-202.739990234375,-125.81999969482422,39.47999954223633
1773231954048670500,6.63867041015625,-203.39999389648438,-124.43999481201172,38.939998626708984
1773231954064660500,6.654660400390625,-203.94000244140625,-122.63999938964844,38.52000045776367
1773231954080651300,6.6706513671875,-203.63999938964844,-120.54000091552734,38.52000045776367
1773231954096670700,6.686670654296875,-202.86000061035156,-119.33999633789062,38.52000045776367
1773231954112664800,6.702664794921875,-203.45999145507812,-117.5999984741211,37.619998931884766
1773231954128654300,6.718654296875,-204.05999755859375,-115.97999572753906,36.84000015258789
1773231954144676600,6.734676513671875,-204.05999755859375,-113.87999725341797,36.23999786376953
1773231954160668700,6.750668701171875,-204.17999267578125,-112.31999969482422,35.7599983215332
1773231954176658400,6.766658447265625,-203.51998901367188,-111.72000122070312,35.099998474121094
1773231954192650000,6.78264990234375,-202.739990234375,-110.39999389648438,33.959999084472656
1773231954208673300,6.79867333984375,-202.55999755859375,-109.19999694824219,33.71999740600586
1773231954224662000,6.814662109375,-202.67999267578125,-108.29999542236328,33.599998474121094
1773231954240654000,6.830654052734375,-202.739990234375,-107.75999450683594,33.599998474121094
1773231954256675000,6.846675048828125,-202.01998901367188,-107.75999450683594,33.71999740600586
1773231954272667600,6.862667724609375,-202.25999450683594,-107.93999481201172,33.65999984741211
1773231954288659200,6.8786591796875,-202.97999572753906,-107.87999725341797,33.41999816894531
1773231954304650200,6.894650146484375,-202.3199920654297,-108.1199951171875,33.41999816894531
1773231954320670500,6.91067041015625,-202.01998901367188,-108.29999542236328,34.20000076293945
1773231954336661500,6.92666162109375,-201.95999145507812,-109.5,34.91999816894531
1773231954352653800,6.94265380859375,-201.6599884033203,-110.75999450683594,36.41999816894531
1773231954368675600,6.958675537109375,-201.36000061035156,-112.68000030517578,37.13999938964844
1773231954384666600,6.97466650390625,-200.5800018310547,-114.41999816894531,37.86000061035156
1773231954400659000,6.990658935546875,-199.8000030517578,-115.37999725341797,38.57999801635742
1773231954416649700,7.006649658203125,-200.09999084472656,-117,38.39999771118164
1773231954432671200,7.022671142578125,-199.5,-119.33999633789062,38.87999725341797
1773231954448662500,7.03866259765625,-199.44000244140625,-121.91999816894531,40.31999969482422
1773231954464653800,7.05465380859375,-199.25999450683594,-124.25999450683594,41.279998779296875
1773231954480673500,7.070673583984375,-198.47999572753906,-127.5,41.70000076293945
1773231954496665000,7.0866650390625,-199.5,-130.6199951171875,42.18000030517578
1773231954512658000,7.102657958984375,-199.1999969482422,-132.17999267578125,41.57999801635742
1773231954528680000,7.118679931640625,-198.6599884033203,-135.1199951171875,41.459999084472656
1773231954544670500,7.13467041015625,-198.59999084472656,-138,41.70000076293945
1773231954560660200,7.15066015625,-198.3000030517578,-139.97999572753906,41.39999771118164
1773231954576651800,7.16665185546875,-198.1199951171875,-142.5,40.97999954223633
1773231954592674800,7.1826748046875,-197.75999450683594,-143.87998962402344,40.79999923706055
1773231954608662500,7.19866259765625,-197.45999145507812,-145.8000030517578,40.13999938964844
1773231954624658000,7.214657958984375,-196.67999267578125,-148.1999969482422,39
1773231954640648200,7.230648193359375,-196.1999969482422,-149.6999969482422,38.87999725341797
1773231954656669700,7.246669677734375,-195.77999877929688,-149.94000244140625,38.7599983215332
1773231954672661800,7.262661865234375,-195.1199951171875,-150.66000366210938,37.91999816894531
1773231954688652300,7.27865234375,-195.17999267578125,-151.86000061035156,37.2599983215332
1773231954704672000,7.294672119140625,-194.5800018310547,-152.5800018310547,36.71999740600586
1773231954720662500,7.31066259765625,-194.22000122070312,-153.17999267578125,36.84000015258789
1773231954736655000,7.326655029296875,-193.97999572753906,-152.94000244140625,36.540000915527344
1773231954752676900,7.3426767578125,-192.77999877929688,-151.97999572753906,36.779998779296875
1773231954768668200,7.358668212890625,-193.13999938964844,-151.67999267578125,38.52000045776367
1773231954784660700,7.37466064453125,-194.0399932861328,-150.72000122070312,39.18000030517578
1773231954800650200,7.390650146484375,-194.27999877929688,-148.1999969482422,39.65999984741211
1773231954816673000,7.406673095703125,-195,-146.52000427246094,40.31999969482422
1773231954832664000,7.4226640625,-194.8199920654297,-144.59999084472656,40.86000061035156
1773231954848654300,7.438654296875,-194.45999145507812,-142.6199951171875,41.939998626708984
1773231954864675800,7.45467578125,-194.39999389648438,-141.239990234375,42.65999984741211
1773231954880668700,7.470668701171875,-194.8199920654297,-140.09999084472656,42.84000015258789
1773231954896659000,7.486658935546875,-195.239990234375,-138.36000061035156,42.599998474121094
1773231954912650000,7.50264990234375,-195.3000030517578,-135.83999633789062,42.47999954223633
1773231954928671000,7.5186708984375,-196.0800018310547,-134.09999084472656,43.13999938964844
1773231954944663600,7.53466357421875,-196.739990234375,-133.55999755859375,43.79999923706055
1773231954960654000,7.550654052734375,-197.27999877929688,-132.17999267578125,44.040000915527344
1773231954976675300,7.56667529296875,-197.45999145507812,-129.89999389648438,44.52000045776367
1773231954992666000,7.582666015625,-197.1599884033203,-127.37999725341797,45.119998931884766
1773231955008658200,7.598658203125,-197.22000122070312,-125.33999633789062,45.119998931884766
1773231955024647000,7.61464697265625,-197.09999084472656,-123.95999908447266,44.39999771118164
1773231955040670700,7.630670654296875,-197.39999389648438,-122.63999938964844,43.73999786376953
1773231955056661800,7.646661865234375,-198.4199981689453,-120.77999877929688,43.439998626708984
1773231955072654300,7.662654296875,-197.8199920654297,-118.37999725341797,42.779998779296875
1773231955088674300,7.67867431640625,-197.27999877929688,-116.39999389648438,42.18000030517578
1773231955104665600,7.69466552734375,-197.33999633789062,-114.1199951171875,41.63999938964844
1773231955120658200,7.710658203125,-197.33999633789062,-112.37999725341797,41.040000915527344
1773231955136647200,7.726647216796875,-197.51998901367188,-110.87999725341797,40.439998626708984
1773231955152671000,7.7426708984375,-196.97999572753906,-109.0199966430664,39.540000915527344
1773231955168662000,7.758662109375,-196.8000030517578,-107.75999450683594,38.15999984741211
1773231955184651800,7.77465185546875,-196.8000030517578,-106.6199951171875,38.099998474121094
1773231955200673500,7.790673583984375,-196.01998901367188,-105.77999877929688,37.31999969482422
1773231955216665900,7.806665771484375,-195.77999877929688,-104.63999938964844,36.23999786376953
1773231955232656600,7.82265673828125,-196.37998962402344,-103.73999786376953,36.36000061035156
1773231955248648000,7.83864794921875,-196.37998962402344,-103.97999572753906,36.36000061035156
1773231955264668400,7.85466845703125,-196.0800018310547,-103.55999755859375,36.23999786376953
1773231955280659500,7.870659423828125,-196.3199920654297,-102.65999603271484,36.599998474121094
1773231955296652500,7.886652587890625,-196.0800018310547,-103.86000061035156,36.89999771118164
1773231955312673300,7.90267333984375,-195.95999145507812,-104.69999694824219,36.84000015258789
1773231955328664600,7.91866455078125,-195.3000030517578,-104.63999938964844,37.5
1773231955344656400,7.934656494140625,-194.87998962402344,-106.0199966430664,38.87999725341797
1773231955360646100,7.950646240234375,-194.94000244140625,-107.87999725341797,40.5
1773231955376668700,7.966668701171875,-194.5800018310547,-110.33999633789062,41.15999984741211
1773231955392660200,7.98266015625,-194.27999877929688,-112.68000030517578,41.63999938964844
1773231955408651300,7.9986513671875,-193.86000061035156,-114.41999816894531,43.02000045776367
1773231955424671700,8.014671630859375,-194.09999084472656,-117.23999786376953,43.86000061035156
1773231955440664000,8.0306640625,-194.1599884033203,-120.65999603271484,44.63999938964844
1773231955456654300,8.046654296875,-194.1599884033203,-123.23999786376953,45.18000030517578
1773231955472645600,8.062645751953125,-194.5800018310547,-125.87999725341797,45.119998931884766
1773231955488667000,8.0786669921875,-194.6999969482422,-128.22000122070312,45.779998779296875
1773231955504659200,8.0946591796875,-194.27999877929688,-131.22000122070312,45.84000015258789
1773231955520651300,8.1106513671875,-194.22000122070312,-134.52000427246094,45.53999710083008
1773231955536672500,8.126672607421876,-194.39999389648438,-136.86000061035156,45.36000061035156
1773231955552663800,8.142663818359376,-193.97999572753906,-139.6199951171875,44.34000015258789
1773231955568654800,8.15865478515625,-193.25999450683594,-142.55999755859375,44.040000915527344
1773231955584646400,8.174646484375,-192.95999145507812,-145.1999969482422,43.79999923706055
1773231955600666400,8.190666259765624,-192.47999572753906,-147.239990234375,42.41999816894531
1773231955616659000,8.206658935546875,-192.47999572753906,-149.6999969482422,41.57999801635742
1773231955632650800,8.222650634765625,-191.8199920654297,-151.1999969482422,41.279998779296875
1773231955648671000,8.2386708984375,-191.22000122070312,-151.55999755859375,39.959999084472656
1773231955664661500,8.25466162109375,-191.0399932861328,-152.94000244140625,39.05999755859375
1773231955680652800,8.27065283203125,-190.1999969482422,-153.95999145507812,39.41999816894531
1773231955696674600,8.286674560546874,-189.83999633789062,-153.5399932861328,38.81999969482422
1773231955712667000,8.3026669921875,-189.5399932861328,-153.95999145507812,38.39999771118164
1773231955728658700,8.31865869140625,-189.72000122070312,-154.6199951171875,38.70000076293945
1773231955744648000,8.33464794921875,-189.89999389648438,-154.1999969482422,39.41999816894531
1773231955760670500,8.35067041015625,-189.83999633789062,-153.89999389648438,39.65999984741211
1773231955776661800,8.366661865234375,-190.25999450683594,-152.63999938964844,39.84000015258789
1773231955792653800,8.38265380859375,-191.75999450683594,-151.1999969482422,40.619998931884766
1773231955808642300,8.398642333984375,-192.4199981689453,-149.94000244140625,41.279998779296875
1773231955824664600,8.41466455078125,-192.83999633789062,-147.95999145507812,41.87999725341797
1773231955840656400,8.430656494140624,-194.09999084472656,-147.239990234375,42.959999084472656
1773231955856648700,8.446648681640625,-193.9199981689453,-145.44000244140625,44.21999740600586
1773231955872670200,8.462670166015625,-194.09999084472656,-142.6199951171875,44.70000076293945
1773231955888660200,8.47866015625,-195,-141.3000030517578,45.41999816894531
1773231955904651000,8.494651123046875,-195.6599884033203,-139.739990234375,46.02000045776367
1773231955920673300,8.51067333984375,-196.6199951171875,-137.45999145507812,45.89999771118164
1773231955936664800,8.526664794921874,-197.27999877929688,-135.89999389648438,46.86000061035156
1773231955952656000,8.54265576171875,-196.67999267578125,-134.45999145507812,47.459999084472656
1773231955968647200,8.558647216796874,-196.8000030517578,-131.94000244140625,46.79999923706055
1773231955984668700,8.574668701171875,-197.09999084472656,-129.59999084472656,46.79999923706055
1773231956000660200,8.59066015625,-197.09999084472656,-128.5800018310547,47.459999084472656
1773231956016651800,8.60665185546875,-197.0399932861328,-126.7199935913086,47.279998779296875
1773231956032674000,8.622674072265625,-196.8000030517578,-124.79999542236328,46.31999969482422
1773231956048664300,8.638664306640624,-196.55999755859375,-123.29999542236328,46.31999969482422
1773231956064656100,8.65465625,-197.0399932861328,-120.89999389648438,46.439998626708984
1773231956080645600,8.670645751953124,-198.1199951171875,-119.0999984741211,45.36000061035156
1773231956096669000,8.6866689453125,-197.87998962402344,-116.87999725341797,44.39999771118164
1773231956112659500,8.702659423828125,-197.8199920654297,-115.43999481201172,43.97999954223633
1773231956128651500,8.718651611328125,-197.94000244140625,-114.65999603271484,43.91999816894531
1773231956144670500,8.73467041015625,-197.8199920654297,-112.79999542236328,43.86000061035156
1773231956160662800,8.750662841796874,-197.8199920654297,-111.5999984741211,42.540000915527344
1773231956176655000,8.766655029296874,-197.75999450683594,-110.04000091552734,41.57999801635742
1773231956192646400,8.782646484375,-197.75999450683594,-108.1199951171875,41.279998779296875
1773231956208666600,8.79866650390625,-197.22000122070312,-106.91999816894531,40.79999923706055
1773231956224658200,8.814658203125,-196.67999267578125,-105.89999389648438,40.619998931884766
1773231956240650500,8.830650390625,-196.37998962402344,-105.5999984741211,40.02000045776367
1773231956256672500,8.846672607421874,-196.13999938964844,-105,38.939998626708984
1773231956272662500,8.86266259765625,-196.01998901367188,-104.63999938964844,39.540000915527344
1773231956288652800,8.87865283203125,-195.6599884033203,-104.5199966430664,40.439998626708984
1773231956304645400,8.894645263671874,-195.95999145507812,-104.87999725341797,39.65999984741211
1773231956320666400,8.910666259765625,-196.37998962402344,-105.77999877929688,39.36000061035156
1773231956336659000,8.926658935546875,-196.86000061035156,-106.37999725341797,40.55999755859375
1773231956352649000,8.94264892578125,-197.63999938964844,-107.5199966430664,42.05999755859375
1773231956368670500,8.95867041015625,-197.27999877929688,-109.07999420166016,43.02000045776367
1773231956384662000,8.974662109375,-196.3199920654297,-110.87999725341797,43.79999923706055
1773231956400653600,8.990653564453124,-196.37998962402344,-112.6199951171875,45.119998931884766
1773231956416644000,9.00664404296875,-196.13999938964844,-115.73999786376953,46.439998626708984
1773231956432664800,9.022664794921875,-195.95999145507812,-119.27999877929688,46.73999786376953
1773231956448656400,9.038656494140625,-196.0800018310547,-121.37999725341797,47.15999984741211
1773231956464647700,9.054647705078125,-195.5399932861328,-124.25999450683594,47.57999801635742
1773231956480669200,9.070669189453126,-195.59999084472656,-127.43999481201172,47.87999725341797
1773231956496662000,9.086662109375,-196.01998901367188,-129.59999084472656,48.53999710083008
1773231956512653000,9.102653076171874,-196.86000061035156,-132.89999389648438,48.65999984741211
1773231956528672500,9.118672607421875,-197.22000122070312,-137.39999389648438,48.29999923706055
1773231956544665000,9.1346650390625,-197.0399932861328,-141.05999755859375,47.87999725341797
1773231956560656600,9.15065673828125,-197.1599884033203,-143.87998962402344,47.34000015258789
1773231956576647700,9.166647705078125,-196.3199920654297,-146.0399932861328,46.31999969482422
1773231956592669200,9.182669189453126,-195.4199981689453,-147.83999633789062,45.599998474121094
1773231956608661500,9.19866162109375,-194.75999450683594,-150.4199981689453,44.939998626708984
1773231956624652000,9.214652099609374,-194.87998962402344,-152.33999633789062,43.73999786376953
1773231956640641300,9.230641357421876,-195.72000122070312,-154.6199951171875,42.23999786376953
1773231956656663300,9.246663330078125,-195.1199951171875,-156.95999145507812,41.52000045776367
1773231956672656100,9.26265625,-194.09999084472656,-158.33999633789062,41.21999740600586
1773231956688647400,9.2786474609375,-193.9199981689453,-159.72000122070312,40.07999801635742
1773231956704669200,9.294669189453124,-193.739990234375,-160.55999755859375,39.71999740600586
1773231956720660000,9.310659912109376,-193.9199981689453,-160.5,39.05999755859375
1773231956736651800,9.32665185546875,-194.09999084472656,-160.9199981689453,38.279998779296875
1773231956752641500,9.3426416015625,-193.6199951171875,-160.9199981689453,38.939998626708984
1773231956768664300,9.358664306640625,-193.37998962402344,-160.739990234375,39.65999984741211
1773231956784654000,9.374654052734375,-193.5,-160.44000244140625,40.31999969482422
1773231956800646000,9.39064599609375,-193.86000061035156,-159.17999267578125,40.5
1773231956816668400,9.40666845703125,-194.1599884033203,-158.16000366210938,40.97999954223633
1773231956832658400,9.422658447265626,-194.45999145507812,-156.3000030517578,42.41999816894531
1773231956848649500,9.4386494140625,-195.1199951171875,-154.86000061035156,43.68000030517578
1773231956864672500,9.454672607421875,-195.17999267578125,-153.5399932861328,44.279998779296875
1773231956880664000,9.4706640625,-195.4199981689453,-151.8000030517578,44.52000045776367
1773231956896653800,9.48665380859375,-195.83999633789062,-150.05999755859375,46.13999938964844
1773231956912645400,9.502645263671875,-196.97999572753906,-147.95999145507812,47.15999984741211
1773231956928667000,9.5186669921875,-197.5800018310547,-146.16000366210938,47.279998779296875
1773231956944658700,9.53465869140625,-196.6199951171875,-144,47.939998626708984
1773231956960648400,9.5506484375,-197.33999633789062,-142.1999969482422,48.29999923706055
1773231956976670200,9.566670166015625,-199.01998901367188,-140.39999389648438,48.47999954223633
1773231956992663000,9.5826630859375,-199.01998901367188,-137.63999938964844,48.959999084472656
1773231957008651500,9.598651611328124,-199.37998962402344,-135.5399932861328,49.97999954223633
1773231957024644600,9.61464453125,-199.9199981689453,-133.13999938964844,50.70000076293945
1773231957040664800,9.630664794921875,-199.3199920654297,-130.8000030517578,50.099998474121094
1773231957056656000,9.64665576171875,-200.1599884033203,-128.52000427246094,49.37999725341797
1773231957072649500,9.6626494140625,-200.87998962402344,-125.81999969482422,49.07999801635742
1773231957088670500,9.67867041015625,-200.8199920654297,-124.07999420166016,49.5
1773231957104661800,9.694661865234375,-200.6999969482422,-122.2199935913086,49.5
1773231957120651500,9.710651611328124,-200.09999084472656,-120.29999542236328,48.53999710083008
1773231957136644400,9.726644287109375,-199.739990234375,-118.25999450683594,47.81999969482422
1773231957152666000,9.742666015625,-199.55999755859375,-115.86000061035156,47.099998474121094
1773231957168656100,9.75865625,-199.739990234375,-114.36000061035156,47.52000045776367
1773231957184648400,9.7746484375,-200.33999633789062,-113.39999389648438,47.52000045776367
1773231957200668200,9.790668212890624,-200.5800018310547,-112.0199966430664,45.89999771118164
1773231957216661000,9.806660888671875,-200.39999389648438,-110.69999694824219,45.36000061035156
1773231957232652300,9.82265234375,-200.45999145507812,-108.77999877929688,46.02000045776367
1773231957248641800,9.838641845703124,-200.6999969482422,-106.79999542236328,45.53999710083008
1773231957264663300,9.854663330078125,-200.51998901367188,-106.91999816894531,44.39999771118164
1773231957280655000,9.870655029296875,-200.39999389648438,-107.15999603271484,44.7599983215332
1773231957296648200,9.886648193359376,-200.27999877929688,-106.97999572753906,44.939998626708984
1773231957312669400,9.90266943359375,-199.8000030517578,-107.15999603271484,43.97999954223633
1773231957328661000,9.918660888671875,-199.44000244140625,-107.04000091552734,44.39999771118164
1773231957344649500,9.9346494140625,-199.3199920654297,-108.05999755859375,45.18000030517578
1773231957360642800,9.950642822265625,-198.6599884033203,-109.86000061035156,45.18000030517578
1773231957376665300,9.966665283203126,-197.45999145507812,-112.37999725341797,46.20000076293945
1773231957392655400,9.9826552734375,-196.97999572753906,-115.86000061035156,47.52000045776367
1773231957408646400,9.998646484375,-197.27999877929688,-117.95999908447266,48.71999740600586
1773231957424667100,10.014667236328124,-197.39999389648438,-120.05999755859375,49.619998931884766
1773231957440659200,10.0306591796875,-197.51998901367188,-123.23999786376953,49.55999755859375
1773231957456650000,10.04664990234375,-197.27999877929688,-127.07999420166016,49.439998626708984
1773231957472672300,10.06267236328125,-196.97999572753906,-130.97999572753906,49.68000030517578
1773231957488662000,10.078662109375,-197.75999450683594,-134.5800018310547,50.03999710083008
1773231957504653600,10.094653564453125,-199.1999969482422,-138,49.439998626708984
1773231957520643300,10.110643310546875,-199.67999267578125,-141.36000061035156,48.71999740600586
1773231957536666600,10.12666650390625,-199.13999938964844,-145.02000427246094,48.41999816894531
1773231957552658200,10.142658203125,-198.83999633789062,-148.44000244140625,47.70000076293945
1773231957568649000,10.15864892578125,-197.87998962402344,-151.67999267578125,46.37999725341797
1773231957584638000,10.174637939453126,-197.09999084472656,-154.37998962402344,45
1773231957600661000,10.190660888671875,-197.09999084472656,-156.36000061035156,43.55999755859375
1773231957616651500,10.206651611328125,-196.9199981689453,-158.8199920654297,42
1773231957632642600,10.222642578125,-196.739990234375,-160.9199981689453,40.37999725341797
1773231957648666000,10.238666015625,-196.1999969482422,-162.1199951171875,39
1773231957664656100,10.25465625,-195.77999877929688,-163.55999755859375,38.15999984741211
1773231957680649700,10.270649658203125,-195.4199981689453,-165.05999755859375,36.71999740600586
1773231957696639000,10.286638916015624,-194.09999084472656,-166.37998962402344,36.23999786376953
1773231957712662300,10.302662353515625,-194.1599884033203,-167.39999389648438,35.7599983215332
1773231957728651000,10.318651123046875,-194.39999389648438,-167.87998962402344,34.97999954223633
1773231957744644000,10.33464404296875,-193.97999572753906,-167.39999389648438,35.099998474121094
1773231957760664600,10.35066455078125,-193.9199981689453,-166.37998962402344,35.7599983215332
1773231957776655000,10.366655029296876,-194.45999145507812,-165.83999633789062,37.20000076293945
1773231957792648000,10.38264794921875,-195.239990234375,-165.77999877929688,37.86000061035156
1773231957808669700,10.398669677734375,-195.89999389648438,-164.33999633789062,38.21999740600586
1773231957824659700,10.41465966796875,-196.55999755859375,-162.83999633789062,39.23999786376953
1773231957840649500,10.4306494140625,-197.45999145507812,-162.17999267578125,40.31999969482422
1773231957856643000,10.44664306640625,-197.8199920654297,-159.95999145507812,41.21999740600586
1773231957872665600,10.46266552734375,-198.4199981689453,-157.86000061035156,42.959999084472656
1773231957888654800,10.47865478515625,-199.55999755859375,-156.239990234375,44.87999725341797
1773231957904648200,10.494648193359374,-200.27999877929688,-154.6199951171875,45.05999755859375
1773231957920637400,10.510637451171876,-200.5800018310547,-152.5800018310547,45.47999954223633
1773231957936658200,10.526658203125,-200.5800018310547,-150.59999084472656,46.37999725341797
1773231957952651800,10.54265185546875,-200.63999938964844,-148.37998962402344,47.21999740600586
1773231957968642600,10.558642578125,-201.3000030517578,-145.67999267578125,48.36000061035156
1773231957984665000,10.5746650390625,-201.83999633789062,-143.63999938964844,48.53999710083008
1773231958000655000,10.590655029296874,-201.5399932861328,-141.239990234375,48.959999084472656
1773231958016644600,10.60664453125,-200.8199920654297,-138.95999145507812,49.37999725341797
1773231958032637700,10.6226376953125,-201.1199951171875,-137.22000122070312,50.03999710083008
1773231958048660200,10.63866015625,-201.5399932861328,-135.17999267578125,50.81999969482422
1773231958064648400,10.6546484375,-201.5399932861328,-133.0800018310547,50.15999984741211
1773231958080641000,10.67064111328125,-202.5,-129.95999145507812,50.15999984741211
1773231958096633300,10.68663330078125,-202.67999267578125,-127.25999450683594,50.279998779296875
1773231958112653600,10.702653564453126,-202.86000061035156,-125.2199935913086,50.21999740600586
1773231958128646100,10.718646240234374,-203.5800018310547,-123.05999755859375,49.97999954223633
1773231958144668000,10.73466796875,-203.45999145507812,-121.19999694824219,49.31999969482422
1773231958160659200,10.7506591796875,-203.39999389648438,-120.54000091552734,49.439998626708984
1773231958176648700,10.766648681640625,-203.63999938964844,-119.81999969482422,49.07999801635742
1773231958192640300,10.78264013671875,-203.87998962402344,-117.77999877929688,48.36000061035156
1773231958208663000,10.7986630859375,-203.39999389648438,-116.45999908447266,48.05999755859375
1773231958224652800,10.81465283203125,-203.0399932861328,-114.77999877929688,48.05999755859375
1773231958240644600,10.83064453125,-204.1199951171875,-113.27999877929688,47.70000076293945
1773231958256667100,10.846667236328125,-204.239990234375,-112.86000061035156,47.15999984741211
1773231958272656400,10.862656494140625,-204.17999267578125,-113.0999984741211,47.939998626708984
1773231958288648000,10.87864794921875,-204.1199951171875,-113.81999969482422,48.53999710083008
1773231958304639000,10.894638916015625,-203.45999145507812,-113.87999725341797,48.23999786376953
1773231958320661800,10.910661865234376,-203.1599884033203,-113.69999694824219,48.41999816894531
1773231958336653300,10.9266533203125,-202.9199981689453,-114.5999984741211,48.71999740600586
1773231958352643800,10.942643798828126,-202.86000061035156,-116.27999877929688,48.599998474121094
1773231958368664800,10.958664794921875,-202.25999450683594,-117.47999572753906,49.13999938964844
1773231958384657400,10.974657470703125,-201.1199951171875,-119.39999389648438,50.03999710083008
1773231958400648700,10.990648681640625,-200.27999877929688,-122.63999938964844,50.7599983215332
1773231958416639000,11.006638916015625,-200.63999938964844,-125.27999877929688,51.05999755859375
1773231958432661800,11.022661865234374,-200.63999938964844,-127.86000061035156,51.23999786376953
1773231958448652500,11.038652587890626,-200.94000244140625,-131.09999084472656,51
1773231958464643600,11.0546435546875,-201,-134.33999633789062,50.7599983215332
1773231958480666400,11.070666259765625,-200.22000122070312,-136.97999572753906,50.15999984741211
1773231958496657700,11.08665771484375,-200.1599884033203,-139.9199981689453,49.619998931884766
1773231958512647200,11.102647216796875,-200.33999633789062,-143.5800018310547,49.86000061035156
1773231958528637700,11.1186376953125,-199.44000244140625,-146.52000427246094,49.02000045776367
1773231958544659500,11.134659423828126,-198.72000122070312,-149.27999877929688,47.7599983215332
1773231958560650800,11.150650634765626,-198.1199951171875,-151.67999267578125,45.71999740600586
1773231958576641500,11.1666416015625,-196.739990234375,-154.44000244140625,43.97999954223633
1773231958592664800,11.182664794921875,-196.37998962402344,-157.13999938964844,43.5
1773231958608656400,11.198656494140625,-195.17999267578125,-159.05999755859375,42.540000915527344
1773231958624646100,11.214646240234375,-193.67999267578125,-161.39999389648438,40.619998931884766
1773231958640668700,11.230668701171876,-193.01998901367188,-162.72000122070312,38.81999969482422
1773231958656660700,11.24666064453125,-192.05999755859375,-163.5,37.68000030517578
1773231958672651800,11.26265185546875,-191.39999389648438,-164.51998901367188,36.89999771118164
1773231958688641500,11.2786416015625,-191.33999633789062,-165.72000122070312,36.119998931884766
1773231958704663300,11.294663330078125,-191.75999450683594,-167.0399932861328,35.39999771118164
1773231958720654800,11.31065478515625,-191.5800018310547,-166.97999572753906,34.68000030517578
1773231958736645400,11.326645263671875,-191.39999389648438,-167.16000366210938,34.5
1773231958752667400,11.34266748046875,-192.05999755859375,-167.09999084472656,34.91999816894531
1773231958768659000,11.358658935546876,-192,-166.5,35.099998474121094
1773231958784650800,11.374650634765626,-192.05999755859375,-165.95999145507812,35.880001068115234
1773231958800641300,11.390641357421876,-192.83999633789062,-165.3000030517578,36.540000915527344
1773231958816662800,11.406662841796875,-193.25999450683594,-164.51998901367188,36.779998779296875
1773231958832653600,11.422653564453125,-192.89999389648438,-163.97999572753906,37.55999755859375
1773231958848645600,11.438645751953125,-192.4199981689453,-162.66000366210938,38.459999084472656
1773231958864666000,11.454666015625,-192.6599884033203,-161.16000366210938,39.29999923706055
1773231958880659200,11.4706591796875,-193.1999969482422,-159.95999145507812,40.73999786376953
1773231958896647400,11.4866474609375,-193.55999755859375,-157.739990234375,42.47999954223633
1773231958912640500,11.502640625,-193.739990234375,-156.4199981689453,43.97999954223633
1773231958928663000,11.5186630859375,-194.22000122070312,-156.239990234375,44.63999938964844
1773231958944653600,11.534653564453125,-194.8199920654297,-154.13999938964844,45.18000030517578
1773231958960644000,11.55064404296875,-195,-151.5,46.07999801635742
1773231958976635000,11.566634765625,-195.17999267578125,-150,46.86000061035156
1773231958992658000,11.582657958984376,-195.89999389648438,-147.59999084472656,47.459999084472656
1773231959008647400,11.5986474609375,-197.27999877929688,-145.25999450683594,47.81999969482422
1773231959024639500,11.614639404296875,-197.45999145507812,-143.75999450683594,48.41999816894531
1773231959040735000,11.63073486328125,-197.5800018310547,-142.0800018310547,48.959999084472656
1773231959056726800,11.646726806640626,-198.239990234375,-139.67999267578125,48.89999771118164
1773231959072718600,11.662718505859376,-198.89999389648438,-137.09999084472656,49.31999969482422
1773231959088738800,11.67873876953125,-199.0800018310547,-134.94000244140625,49.79999923706055
1773231959104730400,11.69473046875,-198.77999877929688,-132.66000366210938,49.79999923706055
1773231959120722400,11.710722412109375,-198.5399932861328,-130.3199920654297,49.5
1773231959136714500,11.726714599609375,-198.36000061035156,-127.91999816894531,49.439998626708984
1773231959152734200,11.742734130859375,-198.6599884033203,-126.29999542236328,50.21999740600586
1773231959168725000,11.75872509765625,-198.59999084472656,-125.2199935913086,50.70000076293945
1773231959184718300,11.77471826171875,-198.47999572753906,-122.75999450683594,50.52000045776367
1773231959200739000,11.790739013671875,-198.6599884033203,-120.23999786376953,49.5
1773231959216728000,11.80672802734375,-198.89999389648438,-118.91999816894531,48.779998779296875
1773231959232722200,11.82272216796875,-198.72000122070312,-117.83999633789062,48.47999954223633
1773231959248711400,11.83871142578125,-198.59999084472656,-116.69999694824219,48.29999923706055
1773231959264733400,11.8547333984375,-198.239990234375,-116.45999908447266,48.119998931884766
1773231959280726800,11.870726806640626,-198.1199951171875,-115.13999938964844,47.81999969482422
1773231959296716500,11.886716552734375,-197.63999938964844,-114.1199951171875,47.81999969482422
1773231959312737800,11.90273779296875,-197.45999145507812,-114.72000122070312,47.52000045776367
1773231959328730400,11.91873046875,-197.75999450683594,-115.25999450683594,47.939998626708984
1773231959344720600,11.934720703125,-197.27999877929688,-116.15999603271484,48.599998474121094
1773231959360712700,11.950712646484375,-197.63999938964844,-117,48.05999755859375
1773231959376733200,11.966733154296875,-197.0399932861328,-118.5,48.47999954223633
1773231959392724700,11.982724853515625,-196.6199951171875,-120.89999389648438,49.55999755859375
1773231959408717600,11.998717529296876,-196.5,-123.5999984741211,49.79999923706055
1773231959424738800,12.01473876953125,-195.4199981689453,-125.5199966430664,50.099998474121094
1773231959440729000,12.03072900390625,-195.17999267578125,-127.19999694824219,50.15999984741211
1773231959456717800,12.0467177734375,-194.75999450683594,-130.1999969482422,50.939998626708984
1773231959472711700,12.062711669921875,-194.09999084472656,-133.13999938964844,51.53999710083008
1773231959488734200,12.078734130859376,-194.0399932861328,-135.72000122070312,50.87999725341797
1773231959504725200,12.094725341796876,-193.97999572753906,-139.1999969482422,49.5
1773231959520716000,12.110716064453126,-193.8000030517578,-142.37998962402344,48.47999954223633
1773231959536737300,12.1267373046875,-194.1599884033203,-144.77999877929688,47.7599983215332
1773231959552729000,12.14272900390625,-194.22000122070312,-147.95999145507812,46.68000030517578
1773231959568720100,12.15872021484375,-193.67999267578125,-151.0800018310547,45.65999984741211
1773231959584743200,12.1747431640625,-193.25999450683594,-154.0800018310547,43.91999816894531
1773231959600731600,12.190731689453125,-192.72000122070312,-156.66000366210938,42.47999954223633
1773231959616723500,12.206723388671875,-192.5399932861328,-158.51998901367188,41.279998779296875
1773231959632715800,12.2227158203125,-192.1199951171875,-161.09999084472656,39.18000030517578
1773231959648737300,12.2387373046875,-192,-162.66000366210938,38.15999984741211
1773231959664726500,12.2547265625,-191.6999969482422,-163.6199951171875,37.31999969482422
1773231959680720000,12.270719970703125,-190.1999969482422,-164.94000244140625,35.81999969482422
1773231959696710000,12.2867099609375,-190.1999969482422,-165.72000122070312,34.5
1773231959712733200,12.302733154296876,-190.55999755859375,-166.1999969482422,33.89999771118164
1773231959728725000,12.31872509765625,-189.95999145507812,-166.44000244140625,33.71999740600586
1773231959744713500,12.33471337890625,-189.47999572753906,-167.51998901367188,33.36000061035156
1773231959760737300,12.3507373046875,-189.83999633789062,-166.9199981689453,33.23999786376953
1773231959776727800,12.366727783203125,-189.6599884033203,-166.44000244140625,33.29999923706055
1773231959792719000,12.382718994140625,-189.17999267578125,-166.6199951171875,33.599998474121094
1773231959808740000,12.398739990234375,-189.17999267578125,-165,34.79999923706055
1773231959824731400,12.4147314453125,-190.25999450683594,-163.67999267578125,35.880001068115234
1773231959840722200,12.43072216796875,-190.6199951171875,-162,37.02000045776367
1773231959856715800,12.4467158203125,-189.77999877929688,-160.01998901367188,38.34000015258789
1773231959872736500,12.462736572265625,-190.5,-158.94000244140625,39.41999816894531
1773231959888727800,12.478727783203125,-190.8000030517578,-157.67999267578125,40.439998626708984
1773231959904718000,12.494718017578125,-190.55999755859375,-156.36000061035156,41.459999084472656
1773231959920741000,12.5107412109375,-190.9199981689453,-154.55999755859375,42.47999954223633
1773231959936731100,12.526731201171875,-191.63999938964844,-152.39999389648438,43.73999786376953
1773231959952723500,12.542723388671876,-192.3000030517578,-150.36000061035156,44.81999969482422
1773231959968713700,12.558713623046875,-193.5,-148.5,45.779998779296875
1773231959984736300,12.574736328125,-194.45999145507812,-147.239990234375,45.89999771118164
1773231960000727800,12.590727783203125,-195.17999267578125,-145.6199951171875,46.31999969482422
1773231960016719000,12.606718994140625,-196.6199951171875,-143.63999938964844,46.97999954223633
1773231960032740000,12.622739990234376,-197.63999938964844,-142.13999938964844,47.63999938964844
1773231960048732000,12.63873193359375,-197.94000244140625,-140.33999633789062,48.71999740600586
1773231960064722200,12.65472216796875,-198.17999267578125,-137.8199920654297,48.41999816894531
1773231960080712700,12.670712646484375,-198.47999572753906,-135.47999572753906,48.36000061035156
1773231960096734200,12.686734130859374,-198.77999877929688,-133.5,48.779998779296875
1773231960112725800,12.702725830078125,-199.67999267578125,-131.45999145507812,48.71999740600586
1773231960128716500,12.718716552734374,-200.5800018310547,-129.239990234375,48.05999755859375
1773231960144739000,12.734739013671875,-202.0800018310547,-127.07999420166016,48.29999923706055
1773231960160729000,12.75072900390625,-203.5800018310547,-125.15999603271484,49.37999725341797
1773231960176721000,12.766720947265625,-203.6999969482422,-123.23999786376953,48.959999084472656
1773231960192713200,12.782713134765626,-203.75999450683594,-121.13999938964844,48
1773231960208735500,12.798735595703125,-204.72000122070312,-119.5199966430664,47.52000045776367
1773231960224726500,12.8147265625,-205.1999969482422,-118.25999450683594,47.279998779296875
1773231960240716000,12.830716064453124,-205.01998901367188,-116.45999908447266,46.619998931884766
1773231960256707000,12.84670703125,-205.01998901367188,-115.73999786376953,46.20000076293945
1773231960272730400,12.86273046875,-205.37998962402344,-115.19999694824219,46.13999938964844
1773231960288722200,12.87872216796875,-204.83999633789062,-114.05999755859375,45.41999816894531
1773231960304711400,12.89471142578125,-204.59999084472656,-113.15999603271484,45.05999755859375
1773231960320734000,12.91073388671875,-204.6599884033203,-112.79999542236328,45.119998931884766
1773231960336723700,12.9267236328125,-203.63999938964844,-112.91999816894531,45.599998474121094
1773231960352717000,12.942717041015625,-203.51998901367188,-112.97999572753906,46.2599983215332
1773231960368737800,12.95873779296875,-202.67999267578125,-113.93999481201172,46.86000061035156
1773231960384729600,12.9747294921875,-202.0800018310547,-115.43999481201172,46.55999755859375
1773231960400722000,12.990721923828126,-202.739990234375,-118.19999694824219,47.279998779296875
1773231960416711400,13.00671142578125,-203.09999084472656,-120.77999877929688,47.459999084472656
1773231960432734200,13.022734130859375,-202.9199981689453,-122.93999481201172,47.63999938964844
1773231960448725000,13.03872509765625,-202.6199951171875,-125.45999908447266,48.119998931884766
1773231960464716000,13.054716064453125,-202.25999450683594,-128.09999084472656,48.779998779296875
1773231960480737800,13.07073779296875,-202.44000244140625,-131.0399932861328,48.89999771118164
1773231960496729300,13.086729248046876,-202.97999572753906,-134.52000427246094,48.29999923706055
1773231960512720600,13.102720703125,-202.97999572753906,-137.52000427246094,48.41999816894531
1773231960528710700,13.118710693359375,-202.0800018310547,-140.0399932861328,48.89999771118164
1773231960544733000,13.13473291015625,-201.4199981689453,-143.45999145507812,47.57999801635742
1773231960560724500,13.150724365234375,-201,-146.8199920654297,45.959999084472656
1773231960576714800,13.16671484375,-199.55999755859375,-149.94000244140625,45.599998474121094
1773231960592737800,13.18273779296875,-198.77999877929688,-152.51998901367188,44.39999771118164
1773231960608729900,13.198729736328126,-198.89999389648438,-154.44000244140625,43.2599983215332
1773231960624720600,13.214720703125,-197.63999938964844,-156.59999084472656,42.18000030517578
1773231960640740400,13.230740234375,-196.37998962402344,-158.8199920654297,41.040000915527344
1773231960656733400,13.2467333984375,-195.77999877929688,-160.37998962402344,39.36000061035156
1773231960672724000,13.262723876953125,-195.05999755859375,-161.75999450683594,37.55999755859375
1773231960688714000,13.2787138671875,-194.0399932861328,-163.5,36.540000915527344
1773231960704737000,13.294737060546876,-194.27999877929688,-164.6999969482422,35.63999938964844
1773231960720728800,13.310728759765626,-194.27999877929688,-165.3000030517578,34.73999786376953
1773231960736718600,13.326718505859375,-192.95999145507812,-166.0800018310547,33.41999816894531
1773231960752740600,13.34274072265625,-193.25999450683594,-166.37998962402344,32.63999938964844
1773231960768733200,13.358733154296875,-193.01998901367188,-167.22000122070312,32.52000045776367
1773231960784722200,13.37472216796875,-192.3000030517578,-167.27999877929688,32.81999969482422
1773231960800713200,13.390713134765624,-193.01998901367188,-165.95999145507812,32.459999084472656
1773231960816736000,13.406736083984375,-193.3199920654297,-165.47999572753906,32.880001068115234
1773231960832728000,13.42272802734375,-193.9199981689453,-165.1199951171875,33.779998779296875
1773231960848718800,13.43871875,-195.1199951171875,-164.51998901367188,34.13999938964844
1773231960864741400,13.454741455078125,-195.77999877929688,-163.8000030517578,34.68000030517578
1773231960880729600,13.4707294921875,-195.83999633789062,-162.59999084472656,35.52000045776367
1773231960896723500,13.486723388671875,-196.3199920654297,-161.5800018310547,36.71999740600586
1773231960912714200,13.50271435546875,-197.39999389648438,-160.67999267578125,37.91999816894531
1773231960928735000,13.51873486328125,-197.94000244140625,-159.4199981689453,38.279998779296875
1773231960944727800,13.534727783203126,-198.17999267578125,-157.97999572753906,39.05999755859375
1773231960960717300,13.55071728515625,-198.89999389648438,-156.59999084472656,40.07999801635742
1773231960976738600,13.566738525390624,-199.8000030517578,-156.17999267578125,40.07999801635742
1773231960992731400,13.5827314453125,-200.33999633789062,-155.22000122070312,40.79999923706055
1773231961008724000,13.598723876953125,-200.75999450683594,-153.05999755859375,42.71999740600586
1773231961024713700,13.614713623046875,-200.75999450683594,-151.37998962402344,43.97999954223633
1773231961040735200,13.6307353515625,-200.87998962402344,-149.39999389648438,44.21999740600586
1773231961056727300,13.646727294921876,-201.239990234375,-147.66000366210938,45
1773231961072718000,13.662718017578126,-202.44000244140625,-146.0399932861328,45.779998779296875
1773231961088738600,13.678738525390624,-203.1599884033203,-144.05999755859375,45.84000015258789
1773231961104729600,13.6947294921875,-203.27999877929688,-142.25999450683594,46.07999801635742
1773231961120721400,13.710721435546875,-204.36000061035156,-139.97999572753906,45.959999084472656
1773231961136712200,13.726712158203124,-204.59999084472656,-137.75999450683594,46.02000045776367
1773231961152733700,13.742733642578125,-205.44000244140625,-136.37998962402344,47.15999984741211
1773231961168725800,13.758725830078125,-206.6999969482422,-134.45999145507812,47.70000076293945
1773231961184716800,13.774716796875,-207.1199951171875,-132.1199951171875,46.91999816894531
1773231961200738600,13.790738525390625,-207.1199951171875,-130.44000244140625,46.97999954223633
1773231961216728300,13.806728271484374,-207.29998779296875,-128.52000427246094,47.52000045776367
1773231961232719400,13.82271923828125,-207.83999633789062,-126.47999572753906,46.68000030517578
1773231961248714000,13.8387138671875,-207.83999633789062,-124.91999816894531,46.79999923706055
1773231961264735200,13.8547353515625,-207.72000122070312,-123.89999389648438,47.15999984741211
1773231961280724700,13.870724853515625,-208.55999755859375,-122.63999938964844,46.73999786376953
1773231961296716300,13.88671630859375,-209.6999969482422,-121.55999755859375,46.37999725341797
1773231961312737800,13.90273779296875,-208.739990234375,-120.77999877929688,46.20000076293945
1773231961328729600,13.9187294921875,-208.6199951171875,-120.77999877929688,46.5
1773231961344719400,13.93471923828125,-209.33999633789062,-121.73999786376953,45.65999984741211
1773231961360712700,13.950712646484375,-209.0399932861328,-122.27999877929688,45.23999786376953
1773231961376733400,13.9667333984375,-208.44000244140625,-123.77999877929688,46.07999801635742
1773231961392726300,13.982726318359376,-208.86000061035156,-125.33999633789062,46.07999801635742
1773231961408715500,13.998715576171875,-209.33999633789062,-127.31999969482422,45.84000015258789
1773231961424737800,14.01473779296875,-208.5,-130.1999969482422,46.07999801635742
1773231961440728000,14.03072802734375,-207.77999877929688,-132.36000061035156,46.55999755859375
1773231961456720400,14.046720458984375,-207.83999633789062,-134.6999969482422,46.07999801635742
1773231961472711700,14.062711669921875,-208.0800018310547,-137.6999969482422,45.779998779296875
1773231961488734200,14.078734130859376,-207.5399932861328,-139.739990234375,45.84000015258789
1773231961504723700,14.0947236328125,-206.94000244140625,-141.59999084472656,44.87999725341797
1773231961520716300,14.11071630859375,-205.55999755859375,-144.4199981689453,43.86000061035156
1773231961536738600,14.126738525390625,-204.239990234375,-147.36000061035156,42.71999740600586
1773231961552729300,14.142729248046875,-203.94000244140625,-151.01998901367188,41.39999771118164
1773231961568719400,14.15871923828125,-203.5800018310547,-153.5399932861328,40.37999725341797
1773231961584742000,14.174741943359376,-201.95999145507812,-155.45999145507812,39
1773231961600734200,14.190734130859376,-201.239990234375,-157.5,37.2599983215332
1773231961616724700,14.206724853515626,-200.75999450683594,-159.59999084472656,35.7599983215332
1773231961632715500,14.222715576171876,-199.44000244140625,-161.45999145507812,33.84000015258789
1773231961648737500,14.238737548828125,-198.72000122070312,-162.89999389648438,32.279998779296875
1773231961664728000,14.25472802734375,-197.6999969482422,-164.27999877929688,31.260000228881836
1773231961680720100,14.27072021484375,-196.86000061035156,-165.36000061035156,29.399999618530273
1773231961696740900,14.286740966796875,-196.1999969482422,-165.83999633789062,27.959999084472656
1773231961712732700,14.302732666015626,-196.55999755859375,-166.97999572753906,26.939998626708984
1773231961728723200,14.31872314453125,-196.6199951171875,-168.47999572753906,26.459999084472656
1773231961744715300,14.33471533203125,-196.25999450683594,-168.89999389648438,25.85999870300293
1773231961760737300,14.3507373046875,-197.22000122070312,-168.95999145507812,24.899999618530273
1773231961776727000,14.36672705078125,-198.1199951171875,-169.1999969482422,24.959999084472656
1773231961792719400,14.38271923828125,-199.01998901367188,-168.95999145507812,25.68000030517578
1773231961808742000,14.398741943359376,-200.22000122070312,-168,25.979999542236328
1773231961824732400,14.414732421875,-201.59999084472656,-166.55999755859375,26.579999923706055
1773231961840723200,14.43072314453125,-202.1999969482422,-165.1199951171875,27.719999313354492
1773231961856714000,14.4467138671875,-202.44000244140625,-164.5800018310547,29.459999084472656
1773231961872736500,14.462736572265625,-202.5,-164.27999877929688,30.479999542236328
1773231961888727600,14.4787275390625,-202.44000244140625,-163.1999969482422,30.899999618530273
1773231961904718000,14.494718017578125,-202.5,-162.239990234375,33.119998931884766
1773231961928735500,14.518735595703125,-203.45999145507812,-160.3199920654297,34.79999923706055
1773231961944725500,14.5347255859375,-204,-158.63999938964844,35.34000015258789
1773231961960718800,14.55071875,-203.94000244140625,-156.59999084472656,36.23999786376953
1773231961976739600,14.566739501953125,-204.17999267578125,-154.67999267578125,37.73999786376953
1773231961992731400,14.5827314453125,-204.17999267578125,-153.5399932861328,39
1773231962008720400,14.598720458984374,-204.59999084472656,-152.51998901367188,40.5
1773231962024712700,14.614712646484374,-205.0800018310547,-150.66000366210938,41.459999084472656
1773231962040736000,14.630736083984376,-205.13999938964844,-148.0800018310547,41.7599983215332
1773231962056726800,14.646726806640626,-205.25999450683594,-146.0399932861328,42.41999816894531
1773231962072718000,14.662718017578126,-205.3199920654297,-144.83999633789062,42.65999984741211
1773231962088738800,14.67873876953125,-205.739990234375,-143.16000366210938,43.2599983215332
1773231962104731000,14.69473095703125,-206.0399932861328,-140.63999938964844,44.70000076293945
1773231962120723000,14.710722900390625,-205.9199981689453,-138,45.599998474121094
1773231962136712700,14.726712646484375,-206.6999969482422,-136.0800018310547,45.36000061035156
1773231962152735000,14.74273486328125,-207.5399932861328,-133.8000030517578,44.87999725341797
1773231962168725000,14.75872509765625,-207.83999633789062,-131.94000244140625,44.52000045776367
1773231962184717600,14.774717529296876,-208.0800018310547,-130.8000030517578,45.23999786376953
1773231962200739000,14.790739013671875,-208.25999450683594,-129.17999267578125,46.02000045776367
1773231962216729600,14.8067294921875,-208.5,-127.43999481201172,45.47999954223633
1773231962232721700,14.8227216796875,-208.44000244140625,-125.57999420166016,45.18000030517578
1773231962248712700,14.838712646484375,-208.5,-124.97999572753906,45.18000030517578
1773231962264733700,14.854733642578125,-208.739990234375,-125.57999420166016,44.939998626708984
1773231962280725800,14.870725830078126,-208.25999450683594,-125.57999420166016,44.279998779296875
1773231962296717000,14.886717041015626,-207.83999633789062,-125.27999877929688,44.099998474121094
1773231962312738800,14.90273876953125,-208.3199920654297,-126.05999755859375,44.34000015258789
1773231962328730400,14.91873046875,-207.95999145507812,-126.65999603271484,44.34000015258789
1773231962344722000,14.934721923828125,-207.36000061035156,-127.07999420166016,44.81999969482422
1773231962360710100,14.950710205078124,-207.36000061035156,-128.75999450683594,45.119998931884766
1773231962376733400,14.9667333984375,-206.94000244140625,-131.0399932861328,44.57999801635742
1773231962392724500,14.982724365234375,-205.86000061035156,-132.89999389648438,44.34000015258789
1773231962408716500,14.998716552734376,-204.4199981689453,-135,44.7599983215332
1773231962424738600,15.014738525390625,-204.17999267578125,-137.63999938964844,44.040000915527344
1773231962440728800,15.030728759765625,-203.6999969482422,-140.09999084472656,43.5
1773231962456720100,15.04672021484375,-203.39999389648438,-141.89999389648438,42.959999084472656
1773231962472713000,15.062712890625,-203.75999450683594,-144.4199981689453,41.39999771118164
1773231962488735000,15.07873486328125,-203.09999084472656,-147.05999755859375,39.599998474121094
1773231962504724000,15.094723876953125,-202.67999267578125,-149.0399932861328,38.279998779296875
1773231962520717000,15.110717041015626,-202.44000244140625,-151.25999450683594,36.18000030517578
1773231962536738600,15.126738525390625,-202.1999969482422,-154.13999938964844,33.779998779296875
1773231962552729900,15.142729736328125,-202.67999267578125,-156.36000061035156,32.39999771118164
1773231962568718600,15.158718505859374,-202.13999938964844,-157.6199951171875,30.479999542236328
1773231962584742000,15.174741943359376,-201.47999572753906,-159.239990234375,27.899999618530273
1773231962600732000,15.19073193359375,-201.72000122070312,-159.89999389648438,26.03999900817871
1773231962616723500,15.206723388671875,-201.72000122070312,-160.739990234375,24.959999084472656
1773231962632716300,15.22271630859375,-200.94000244140625,-162.4199981689453,23.279998779296875
1773231962648738000,15.238738037109375,-200.5800018310547,-163.1999969482422,21.119998931884766
1773231962664727600,15.2547275390625,-200.5800018310547,-163.8000030517578,19.439998626708984
1773231962680720000,15.270719970703125,-200.1599884033203,-164.33999633789062,17.8799991607666
1773231962696712000,15.2867119140625,-200.1599884033203,-164.5800018310547,16.68000030517578
1773231962712733400,15.3027333984375,-200.09999084472656,-165.47999572753906,15.960000038146973
1773231962728724200,15.31872412109375,-200.22000122070312,-166.0800018310547,15.299999237060547
1773231962744714000,15.3347138671875,-200.94000244140625,-166.13999938964844,14.519999504089355
1773231962760735500,15.350735595703124,-200.6999969482422,-165.59999084472656,13.679999351501465
1773231962776726800,15.366726806640624,-200.0399932861328,-165.72000122070312,13.619999885559082
1773231962792719000,15.382718994140625,-199.97999572753906,-166.25999450683594,14.460000038146973
1773231962808738300,15.39873828125,-200.39999389648438,-165.77999877929688,15.479999542236328
1773231962824731400,15.4147314453125,-201.5399932861328,-164.22000122070312,16.020000457763672
1773231962840724000,15.430723876953126,-201.95999145507812,-163.44000244140625,16.979999542236328
1773231962856714200,15.44671435546875,-202.13999938964844,-163.6199951171875,18.84000015258789
1773231962872736500,15.462736572265625,-202.97999572753906,-162.47999572753906,20.34000015258789
1773231962888726800,15.478726806640625,-203.27999877929688,-161.16000366210938,21.18000030517578
1773231962904718600,15.494718505859375,-202.739990234375,-159.77999877929688,22.799999237060547
1773231962920739000,15.510739013671875,-203.0399932861328,-158.33999633789062,23.100000381469727
1773231962936730600,15.526730712890625,-203.75999450683594,-157.1999969482422,24
1773231962952723200,15.54272314453125,-204.239990234375,-156.83999633789062,25.920000076293945
1773231962968713000,15.558712890625,-205.44000244140625,-156,26.81999969482422
1773231962984735500,15.574735595703125,-206.1599884033203,-153.77999877929688,28.920000076293945
1773231963000728000,15.59072802734375,-205.97999572753906,-152.09999084472656,29.760000228881836
1773231963016718800,15.60671875,-206.1599884033203,-150.5399932861328,30
1773231963032740600,15.62274072265625,-206.45999145507812,-149.09999084472656,30.84000015258789
1773231963048730000,15.638730224609375,-206.63999938964844,-148.37998962402344,31.799999237060547
1773231963064723000,15.654722900390626,-207.1199951171875,-146.63999938964844,33.41999816894531
1773231963080714800,15.67071484375,-207.72000122070312,-144.59999084472656,34.439998626708984
1773231963096733400,15.6867333984375,-207.89999389648438,-142.97999572753906,34.73999786376953
1773231963112727000,15.70272705078125,-207.95999145507812,-140.75999450683594,34.2599983215332
1773231963128717800,15.7187177734375,-208.55999755859375,-139.6199951171875,34.79999923706055
1773231963144740400,15.734740234375,-208.97999572753906,-138.5399932861328,35.279998779296875
1773231963160729900,15.750729736328125,-209.8199920654297,-137.0399932861328,35.34000015258789
1773231963176721700,15.7667216796875,-210.05999755859375,-136.13999938964844,35.63999938964844
1773231963192713700,15.782713623046876,-210.29998779296875,-134.94000244140625,35.34000015258789
1773231963208735000,15.79873486328125,-210.6599884033203,-133.37998962402344,35.52000045776367
1773231963224725800,15.814725830078125,-211.3199920654297,-132.17999267578125,35.63999938964844
1773231963240717600,15.830717529296875,-212.09999084472656,-131.63999938964844,35.34000015258789
1773231963256738300,15.84673828125,-211.97999572753906,-130.44000244140625,34.97999954223633
1773231963272731000,15.86273095703125,-212.45999145507812,-129.3000030517578,34.97999954223633
1773231963288722200,15.87872216796875,-212.0399932861328,-129.3000030517578,35.099998474121094
1773231963304714000,15.8947138671875,-212.1599884033203,-128.6999969482422,35.099998474121094
1773231963320733700,15.910733642578125,-212.94000244140625,-128.16000366210938,34.68000030517578
1773231963336723500,15.926723388671874,-213.4199981689453,-129.05999755859375,34.13999938964844
1773231963352716000,15.942716064453125,-213.95999145507812,-130.8000030517578,33.84000015258789
1773231963368737300,15.9587373046875,-213.47999572753906,-131.63999938964844,34.02000045776367
1773231963384729900,15.974729736328126,-213.239990234375,-131.94000244140625,34.13999938964844
1773231963400721400,15.990721435546876,-212.8199920654297,-133.37998962402344,34.02000045776367
1773231963416711400,16.00671142578125,-212.22000122070312,-134.6999969482422,34.07999801635742
1773231963432734000,16.02273388671875,-211.9199981689453,-135.17999267578125,33.599998474121094
1773231963448724000,16.038723876953124,-211.37998962402344,-136.44000244140625,32.7599983215332
1773231963464716000,16.054716064453125,-210.4199981689453,-139.02000427246094,32.57999801635742
1773231963480738600,16.070738525390624,-209.94000244140625,-140.94000244140625,31.979999542236328
1773231963496729900,16.086729736328124,-210.239990234375,-142.02000427246094,31.260000228881836
1773231963512719600,16.1027197265625,-210.6599884033203,-144.3000030517578,30.719999313354492
1773231963528711700,16.118711669921876,-210.77999877929688,-145.97999572753906,29.219999313354492
1773231963544733400,16.1347333984375,-209.75999450683594,-147,27.420000076293945
1773231963560724200,16.15072412109375,-209.33999633789062,-148.5,26.459999084472656
1773231963576714800,16.16671484375,-209.27999877929688,-149.87998962402344,25.260000228881836
1773231963592738600,16.182738525390626,-209.09999084472656,-151.37998962402344,23.760000228881836
1773231963608729300,16.198729248046874,-208.9199981689453,-153.17999267578125,22.5
1773231963624719600,16.2147197265625,-208.5,-154.97999572753906,21.119998931884766
1773231963640742100,16.2307421875,-208.1999969482422,-156.36000061035156,19.85999870300293
1773231963656732200,16.246732177734376,-207.4199981689453,-156.95999145507812,18.959999084472656
1773231963672724500,16.262724365234376,-206.75999450683594,-157.55999755859375,18.420000076293945
1773231963688715800,16.2787158203125,-206.33999633789062,-158.09999084472656,17.399999618530273
1773231963704736800,16.29473681640625,-206.09999084472656,-158.33999633789062,16.079999923706055
1773231963720729300,16.310729248046876,-206.6999969482422,-158.8199920654297,15.179999351501465
1773231963736718800,16.32671875,-206.33999633789062,-158.45999145507812,15
1773231963752710700,16.342710693359376,-206.75999450683594,-158.6999969482422,15.299999237060547
1773231963768731400,16.3587314453125,-207.95999145507812,-158.87998962402344,14.399999618530273
1773231963784724000,16.374723876953126,-207.59999084472656,-158.6999969482422,13.799999237060547
1773231963800715500,16.390715576171875,-206.87998962402344,-158.22000122070312,14.219999313354492
1773231963816736500,16.406736572265626,-207.1199951171875,-158.0399932861328,14.219999313354492
1773231963832728000,16.42272802734375,-208.13999938964844,-157.739990234375,14.639999389648438
1773231963848719000,16.438718994140626,-209.39999389648438,-156.83999633789062,15.299999237060547
1773231963864741400,16.454741455078125,-210.17999267578125,-155.87998962402344,16.260000228881836
1773231963880731000,16.47073095703125,-210.239990234375,-154.97999572753906,16.979999542236328
1773231963896723000,16.486722900390625,-210.5399932861328,-154.86000061035156,18.719999313354492
1773231963912714800,16.50271484375,-210.6599884033203,-153.47999572753906,19.979999542236328
1773231963928737000,16.518737060546876,-211.0800018310547,-151.6199951171875,20.100000381469727
1773231963944726300,16.534726318359375,-211.5,-151.3199920654297,21.059999465942383
1773231963960719000,16.550718994140624,-211.6199951171875,-151.5,21.84000015258789
1773231963976708400,16.566708251953123,-212.45999145507812,-150.47999572753906,22.19999885559082
1773231963992731100,16.582731201171875,-212.75999450683594,-148.67999267578125,22.559999465942383
1773231964008722400,16.598722412109375,-211.97999572753906,-147.89999389648438,23.15999984741211
1773231964024712700,16.614712646484374,-212.1599884033203,-147.3000030517578,23.639999389648438
1773231964040735200,16.6307353515625,-213.239990234375,-146.09999084472656,24.119998931884766
1773231964056726000,16.64672607421875,-213.239990234375,-144.59999084472656,24.65999984741211
1773231964072717000,16.662717041015625,-212.27999877929688,-143.33999633789062,25.739999771118164
1773231964088739600,16.678739501953125,-212.51998901367188,-142.0800018310547,26.69999885559082
1773231964104729000,16.69472900390625,-213,-141.3000030517578,27.35999870300293
1773231964120720000,16.710719970703124,-212.94000244140625,-139.739990234375,27.53999900817871
1773231964136723500,16.726723388671875,-212.87998962402344,-138.239990234375,27.779998779296875
1773231964152747300,16.742747314453126,-212.87998962402344,-137.52000427246094,28.3799991607666
1773231964168738300,16.75873828125,-213.05999755859375,-136.0800018310547,29.219999313354492
1773231964184728600,16.774728515625,-213.4199981689453,-135,29.399999618530273
1773231964200751900,16.790751953125,-213.239990234375,-134.33999633789062,28.439998626708984
1773231964216742700,16.80674267578125,-213.05999755859375,-133.55999755859375,28.19999885559082
1773231964232733200,16.822733154296873,-213.6599884033203,-132.77999877929688,28.3799991607666
1773231964248725800,16.838725830078126,-214.44000244140625,-132.05999755859375,28.139999389648438
1773231964264746500,16.85474658203125,-213.95999145507812,-130.8000030517578,28.079999923706055
1773231964280737800,16.87073779296875,-214.13999938964844,-130.1999969482422,28.079999923706055
1773231964296728300,16.886728271484376,-214.86000061035156,-130.6199951171875,27.959999084472656
1773231964312751600,16.902751708984376,-214.739990234375,-131.27999877929688,27.899999618530273
1773231964328741000,16.9187412109375,-215.39999389648438,-131.33999633789062,27.899999618530273
1773231964344733700,16.934733642578124,-214.86000061035156,-131.27999877929688,28.079999923706055
1773231964360734000,16.95073388671875,-214.1999969482422,-132.66000366210938,27.899999618530273
1773231964376745000,16.966744873046874,-213.95999145507812,-134.52000427246094,28.01999855041504
1773231964392737300,16.9827373046875,-213.83999633789062,-135.1199951171875,28.619998931884766
1773231964408729000,16.99872900390625,-213.47999572753906,-135.77999877929688,28.85999870300293
1773231964424750800,17.014750732421874,-213.5399932861328,-137.8199920654297,28.85999870300293
1773231964440739600,17.030739501953125,-213.6599884033203,-139.55999755859375,28.619998931884766
1773231964456733400,17.0467333984375,-213.17999267578125,-140.16000366210938,28.68000030517578
1773231964472724200,17.06272412109375,-213.1199951171875,-141.4199981689453,28.3799991607666
1773231964488745700,17.078745849609376,-213.47999572753906,-143.16000366210938,27.479999542236328
1773231964504737500,17.094737548828125,-213.77999877929688,-144.72000122070312,26.760000228881836
1773231964520727600,17.1107275390625,-214.0800018310547,-146.5800018310547,26.399999618530273
1773231964536749800,17.126749755859375,-213.95999145507812,-148.44000244140625,26.03999900817871
1773231964552741000,17.1427412109375,-213.29998779296875,-150.239990234375,24.899999618530273
1773231964568732200,17.158732177734375,-212.51998901367188,-152.51998901367188,24.299999237060547
1773231964584724700,17.174724853515624,-211.3199920654297,-154.01998901367188,24
1773231964600745700,17.190745849609375,-210.5399932861328,-155.87998962402344,22.979999542236328
1773231964616737800,17.20673779296875,-209.6999969482422,-157.5,21.35999870300293
1773231964632727600,17.2227275390625,-208.0800018310547,-157.739990234375,19.799999237060547
1773231964648748800,17.238748779296873,-206.63999938964844,-158.8199920654297,18.18000030517578
1773231964664740600,17.25474072265625,-205.97999572753906,-160.9199981689453,17.69999885559082
1773231964680733200,17.270733154296874,-204.72000122070312,-161.6999969482422,17.760000228881836
1773231964696723000,17.286722900390625,-203.6999969482422,-161.45999145507812,17.219999313354492
1773231964712745700,17.302745849609376,-202.9199981689453,-161.87998962402344,16.139999389648438
1773231964728735500,17.318735595703124,-202.6199951171875,-161.87998962402344,15.359999656677246
1773231964744727000,17.33472705078125,-202.67999267578125,-161.6999969482422,15.239999771118164
1773231964760747800,17.350747802734375,-202.01998901367188,-162.36000061035156,14.699999809265137
1773231964776739000,17.366739013671875,-201.72000122070312,-162.77999877929688,14.9399995803833
1773231964792732000,17.38273193359375,-202.13999938964844,-162.47999572753906,15.779999732971191
1773231964808754200,17.398754150390626,-202.44000244140625,-161.94000244140625,16.19999885559082
1773231964824743700,17.41474365234375,-202.13999938964844,-160.86000061035156,16.139999389648438
1773231964840734700,17.430734619140626,-202.86000061035156,-160.8000030517578,16.619998931884766
1773231964856726500,17.4467265625,-203.0399932861328,-159.89999389648438,17.459999084472656
1773231964872748800,17.462748779296874,-202.55999755859375,-158.8199920654297,18.239999771118164
1773231964888739800,17.47873974609375,-202.5,-158.8199920654297,20.100000381469727
1773231964904732000,17.49473193359375,-202.6199951171875,-157.86000061035156,21.600000381469727
1773231964920753400,17.51075341796875,-202.3199920654297,-156.1199951171875,21.479999542236328
1773231964936745200,17.5267451171875,-202.37998962402344,-155.09999084472656,22.260000228881836
1773231964952736000,17.542736083984376,-203.51998901367188,-155.16000366210938,23.69999885559082
1773231964968726500,17.5587265625,-203.39999389648438,-154.5,24.479999542236328
1773231964984747000,17.5747470703125,-202.6199951171875,-153.05999755859375,25.5
1773231965000738600,17.590738525390623,-202.44000244140625,-151.739990234375,26.8799991607666
1773231965016730000,17.606730224609375,-203.27999877929688,-149.87998962402344,27.84000015258789
1773231965032752600,17.622752685546875,-203.5800018310547,-149.09999084472656,28.619998931884766
1773231965048744200,17.638744140625,-203.45999145507812,-149.22000122070312,29.219999313354492
1773231965064735000,17.65473486328125,-203.0399932861328,-147.17999267578125,29.399999618530273
1773231965080725500,17.6707255859375,-203.6999969482422,-145.8000030517578,30.420000076293945
1773231965096748500,17.68674853515625,-204.89999389648438,-145.55999755859375,31.01999855041504
1773231965112739600,17.702739501953126,-204.4199981689453,-143.63999938964844,31.01999855041504
1773231965128731100,17.718731201171874,-204.239990234375,-141.72000122070312,31.67999839782715
1773231965144751900,17.734751953125,-204.59999084472656,-140.5800018310547,32.52000045776367
1773231965160743700,17.75074365234375,-205.1999969482422,-139.02000427246094,33.05999755859375
1773231965176734700,17.766734619140625,-204.83999633789062,-138.17999267578125,32.880001068115234
1773231965192726300,17.782726318359376,-204.5399932861328,-137.09999084472656,32.39999771118164
1773231965208745500,17.798745361328123,-205.37998962402344,-135.239990234375,32.63999938964844
1773231965224739800,17.81473974609375,-205.67999267578125,-133.9199981689453,33.41999816894531
1773231965240729000,17.83072900390625,-205.6199951171875,-133.55999755859375,34.02000045776367
1773231965256752000,17.846752197265626,-205.1999969482422,-133.1999969482422,33.84000015258789
1773231965272743200,17.8627431640625,-204.05999755859375,-132.59999084472656,33.599998474121094
1773231965288734500,17.878734375,-203.75999450683594,-132.17999267578125,33.36000061035156
1773231965304725800,17.894725830078126,-203.51998901367188,-131.63999938964844,33.119998931884766
1773231965320748000,17.910748046875,-203.33999633789062,-132,33.05999755859375
1773231965336738600,17.926738525390626,-203.0399932861328,-132.3000030517578,33.36000061035156
1773231965352729900,17.942729736328126,-202.1999969482422,-131.87998962402344,33.84000015258789
1773231965368750300,17.958750244140624,-201.59999084472656,-132.77999877929688,33.84000015258789
1773231965384743200,17.9747431640625,-200.63999938964844,-134.45999145507812,33.36000061035156
1773231965400734700,17.990734619140625,-199.67999267578125,-135.36000061035156,33.18000030517578
1773231965416722700,18.00672265625,-199.5,-136.5,32.81999969482422
1773231965432746800,18.022746826171876,-199.13999938964844,-138.66000366210938,32.57999801635742
1773231965448737500,18.038737548828124,-198.3000030517578,-140.16000366210938,32.52000045776367
1773231965464727300,18.054727294921875,-198,-141.1199951171875,31.079999923706055
1773231965480751000,18.070751220703126,-197.8199920654297,-142.1999969482422,29.81999969482422
1773231965496742700,18.08674267578125,-198.239990234375,-143.63999938964844,29.34000015258789
1773231965512733200,18.102733154296875,-198.83999633789062,-145.02000427246094,29.15999984741211
1773231965528725000,18.11872509765625,-198.95999145507812,-146.0399932861328,28.739999771118164
1773231965544746200,18.134746337890626,-197.94000244140625,-147.4199981689453,27.18000030517578
1773231965560737300,18.1507373046875,-197.0399932861328,-148.6199951171875,26.399999618530273
1773231965576727300,18.166727294921873,-197.09999084472656,-149.75999450683594,25.799999237060547
1773231965592750000,18.18275,-196.97999572753906,-150.83999633789062,24.600000381469727
1773231965608743000,18.198742919921877,-196.9199981689453,-151.86000061035156,22.979999542236328
1773231965624733200,18.214733154296876,-197.22000122070312,-152.87998962402344,21.959999084472656
1773231965640723500,18.230723388671876,-197.45999145507812,-153.36000061035156,21.420000076293945
1773231965656746200,18.246746337890624,-196.67999267578125,-154.0800018310547,20.100000381469727
1773231965672737000,18.262737060546876,-196.25999450683594,-154.739990234375,19.19999885559082
1773231965688727600,18.2787275390625,-196.97999572753906,-155.63999938964844,18.600000381469727
1773231965704750800,18.294750732421875,-197.0399932861328,-156.5399932861328,17.34000015258789
1773231965720742000,18.310741943359375,-196.67999267578125,-156.59999084472656,16.68000030517578
1773231965736732000,18.32673193359375,-197.09999084472656,-156.83999633789062,16.260000228881836
1773231965752755000,18.3427548828125,-198.1199951171875,-156.59999084472656,15.539999961853027
1773231965768744400,18.358744384765625,-198.95999145507812,-156.1199951171875,16.079999923706055
1773231965784735500,18.374735595703125,-199.1999969482422,-155.5800018310547,16.739999771118164
1773231965800728600,18.390728515625,-199.1999969482422,-155.63999938964844,16.19999885559082
1773231965816748500,18.40674853515625,-199.44000244140625,-156.36000061035156,16.559999465942383
1773231965832741000,18.4227412109375,-200.22000122070312,-155.0399932861328,17.219999313354492
1773231965848732200,18.438732177734376,-200.63999938964844,-154.67999267578125,17.940000534057617
1773231965864753400,18.45475341796875,-200.94000244140625,-155.39999389648438,19.139999389648438
1773231965880745500,18.470745361328124,-200.5800018310547,-153.95999145507812,20.03999900817871
1773231965896736500,18.486736572265624,-200.33999633789062,-152.75999450683594,21.239999771118164
1773231965912728000,18.50272802734375,-201,-152.45999145507812,21.899999618530273
1773231965928749800,18.518749755859375,-200.6999969482422,-151.9199981689453,21.779998779296875
1773231965944740600,18.53474072265625,-199.55999755859375,-150.89999389648438,21.84000015258789
1773231965960730400,18.55073046875,-199.6199951171875,-149.94000244140625,22.799999237060547
1773231965976752400,18.56675244140625,-199.6199951171875,-148.86000061035156,24.35999870300293
1773231965992744400,18.582744384765626,-199.0800018310547,-148.13999938964844,25.85999870300293
1773231966008736800,18.59873681640625,-199.1999969482422,-147.89999389648438,26.459999084472656
1773231966024725800,18.614725830078125,-199.13999938964844,-146.52000427246094,26.34000015258789
1773231966040748800,18.630748779296876,-199.44000244140625,-144.59999084472656,26.69999885559082
1773231966056739300,18.6467392578125,-199.5,-143.8199920654297,27.18000030517578
1773231966072731100,18.662731201171876,-198.95999145507812,-142.37998962402344,28.01999855041504
1773231966088753200,18.678753173828124,-198.47999572753906,-140.5800018310547,28.559999465942383
1773231966104745000,18.694744873046876,-198.05999755859375,-139.97999572753906,28.739999771118164
1773231966120735500,18.710735595703124,-198.1199951171875,-138.36000061035156,29.760000228881836
1773231966136727600,18.7267275390625,-198.05999755859375,-137.0399932861328,30.35999870300293
1773231966160743700,18.75074365234375,-198.4199981689453,-136.0800018310547,30.17999839782715
1773231966176735200,18.7667353515625,-198.239990234375,-134.94000244140625,30.299999237060547
1773231966192727000,18.78272705078125,-198.83999633789062,-133.97999572753906,30.35999870300293
1773231966208746800,18.798746826171875,-198.4199981689453,-133.739990234375,30.599998474121094
1773231966224739800,18.81473974609375,-197.94000244140625,-132.89999389648438,30
1773231966240731000,18.83073095703125,-197.94000244140625,-132.59999084472656,29.51999855041504
1773231966256752600,18.846752685546875,-198.59999084472656,-132.5399932861328,30.299999237060547
1773231966272743000,18.862742919921875,-198.6599884033203,-132.77999877929688,30.719999313354492
1773231966288733700,18.878733642578126,-197.63999938964844,-133.0800018310547,30.599998474121094
1773231966304726300,18.894726318359375,-197.22000122070312,-133.1999969482422,30.059999465942383
1773231966320748500,18.91074853515625,-197.94000244140625,-134.0399932861328,29.760000228881836
1773231966336738000,18.926738037109374,-198.3000030517578,-134.52000427246094,29.279998779296875
1773231966352730400,18.94273046875,-197.75999450683594,-134.6999969482422,28.920000076293945
1773231966368752400,18.95875244140625,-197.63999938964844,-135.4199981689453,28.85999870300293
1773231966384743700,18.97474365234375,-197.6999969482422,-136.5,28.920000076293945
1773231966400734500,18.990734375,-197.45999145507812,-138.36000061035156,28.5
1773231966416725000,19.00672509765625,-197.39999389648438,-140.09999084472656,27.119998931884766
1773231966432747300,19.022747314453124,-197.09999084472656,-140.75999450683594,26.939998626708984
1773231966448738000,19.038738037109376,-197.27999877929688,-141.3000030517578,26.219999313354492
1773231966464728600,19.054728515625,-197.45999145507812,-142.44000244140625,25.5
1773231966480750300,19.070750244140626,-197.22000122070312,-144.17999267578125,24.899999618530273
1773231966496743200,19.0867431640625,-196.5,-145.1999969482422,23.579999923706055
1773231966512733400,19.1027333984375,-195.72000122070312,-146.39999389648438,22.3799991607666
1773231966528726000,19.11872607421875,-195.72000122070312,-147.3000030517578,21.719999313354492
1773231966544747000,19.1347470703125,-195.4199981689453,-148.3199920654297,21.239999771118164
1773231966560737000,19.150737060546874,-195.4199981689453,-148.9199981689453,20.520000457763672
1773231966576728300,19.166728271484374,-195.3000030517578,-149.22000122070312,20.03999900817871
1773231966592750300,19.182750244140625,-194.8199920654297,-149.63999938964844,18.959999084472656
1773231966608743200,19.1987431640625,-194.33999633789062,-149.39999389648438,17.399999618530273
1773231966624733200,19.214733154296876,-193.5,-150,16.739999771118164
1773231966640724000,19.230723876953125,-192.89999389648438,-150.4199981689453,16.31999969482422
1773231966656745700,19.246745849609376,-192.6599884033203,-150.4199981689453,15.119999885559082
1773231966672737500,19.262737548828124,-192.1199951171875,-150.59999084472656,15
1773231966688729300,19.278729248046876,-191.8199920654297,-150.239990234375,15.239999771118164
1773231966704750800,19.294750732421875,-191.39999389648438,-150.36000061035156,14.75999927520752
1773231966720742400,19.310742431640627,-191.27999877929688,-150.3000030517578,15
1773231966736731600,19.326731689453126,-191.87998962402344,-150.3000030517578,15.420000076293945
1773231966752754400,19.34275439453125,-192.72000122070312,-150,15.299999237060547
1773231966768747000,19.3587470703125,-193.25999450683594,-148.86000061035156,16.19999885559082
1773231966784736800,19.37473681640625,-193.1999969482422,-148.739990234375,16.619998931884766
1773231966800728300,19.390728271484374,-193.739990234375,-148.37998962402344,16.19999885559082
1773231966816749000,19.4067490234375,-194.22000122070312,-147.59999084472656,16.920000076293945
1773231966832741600,19.42274169921875,-194.09999084472656,-146.63999938964844,18.059999465942383
1773231966848733400,19.4387333984375,-194.5800018310547,-145.5,18.18000030517578
1773231966864754000,19.45475390625,-195.05999755859375,-145.67999267578125,17.81999969482422
1773231966880744200,19.470744140625,-194.6999969482422,-145.02000427246094,18.18000030517578
1773231966896737300,19.4867373046875,-194.33999633789062,-143.52000427246094,19.739999771118164
1773231966912727800,19.502727783203124,-194.27999877929688,-142.55999755859375,20.219999313354492
1773231966928750800,19.518750732421875,-194.39999389648438,-141.83999633789062,20.69999885559082
1773231966944740900,19.534740966796875,-194.63999938964844,-141.1199951171875,21.18000030517578
1773231966960731100,19.550731201171875,-194.8199920654297,-139.86000061035156,21.479999542236328
1773231966976723700,19.5667236328125,-195.239990234375,-138.59999084472656,21.899999618530273
1773231966992745500,19.582745361328126,-195.95999145507812,-138.239990234375,22.020000457763672
1773231967008735200,19.5987353515625,-195.95999145507812,-138.05999755859375,22.5
1773231967024727600,19.6147275390625,-195.05999755859375,-136.0800018310547,22.260000228881836
1773231967040748000,19.630748046875,-195.95999145507812,-134.52000427246094,22.439998626708984
1773231967056740600,19.64674072265625,-196.44000244140625,-133.739990234375,23.279998779296875
1773231967072731100,19.662731201171876,-196.0800018310547,-132.66000366210938,23.279998779296875
1773231967088752400,19.67875244140625,-197.27999877929688,-131.6999969482422,22.920000076293945
1773231967104742700,19.69474267578125,-197.0399932861328,-131.16000366210938,22.68000030517578
1773231967120734700,19.710734619140624,-196.25999450683594,-130.25999450683594,23.15999984741211
1773231967136728000,19.72672802734375,-196.739990234375,-128.6999969482422,22.85999870300293
1773231967152748500,19.74274853515625,-197.39999389648438,-127.73999786376953,22.31999969482422
1773231967168739800,19.75873974609375,-197.51998901367188,-127.73999786376953,22.260000228881836
1773231967184729000,19.77472900390625,-197.8199920654297,-127.68000030517578,22.139999389648438
1773231967200752000,19.790752197265626,-198.3000030517578,-126.83999633789062,22.260000228881836
1773231967216745200,19.8067451171875,-198.17999267578125,-125.81999969482422,22.3799991607666
1773231967232735200,19.8227353515625,-198.239990234375,-125.33999633789062,22.439998626708984
1773231967248726300,19.838726318359374,-197.94000244140625,-125.04000091552734,21.65999984741211
1773231967264749600,19.85474951171875,-197.5800018310547,-124.68000030517578,21
1773231967280740600,19.87074072265625,-197.5800018310547,-125.15999603271484,21.719999313354492
1773231967296731000,19.88673095703125,-197.63999938964844,-125.57999420166016,21.35999870300293
1773231967312752600,19.902752685546876,-197.39999389648438,-125.04000091552734,20.69999885559082
1773231967328744200,19.918744140625,-197.27999877929688,-124.55999755859375,21.35999870300293
1773231967344735700,19.93473583984375,-197.33999633789062,-125.2199935913086,21.479999542236328
1773231967360725000,19.95072509765625,-197.6999969482422,-125.63999938964844,20.760000228881836
1773231967376746800,19.966746826171875,-197.6999969482422,-125.5199966430664,21.059999465942383
1773231967392739600,19.982739501953127,-197.75999450683594,-125.33999633789062,21.53999900817871
1773231967408731000,19.99873095703125,-198.72000122070312,-125.27999877929688,21.18000030517578
1773231967424751400,20.01475146484375,-198.59999084472656,-126.5999984741211,21.239999771118164
1773231967440742700,20.03074267578125,-198.77999877929688,-127.6199951171875,22.020000457763672
1773231967456733200,20.046733154296874,-199.1999969482422,-127.86000061035156,22.19999885559082
1773231967472726300,20.062726318359374,-199.37998962402344,-128.0399932861328,22.31999969482422
1773231967488746500,20.07874658203125,-199.5,-129.05999755859375,23.51999855041504
1773231967504737500,20.094737548828125,-199.5,-130.1999969482422,23.81999969482422
1773231967520730000,20.110730224609377,-200.39999389648438,-131.22000122070312,24.299999237060547
1773231967536751400,20.12675146484375,-200.5800018310547,-132.72000122070312,25.139999389648438
1773231967552742100,20.1427421875,-200.75999450683594,-133.67999267578125,25.139999389648438
1773231967568734000,20.15873388671875,-201.05999755859375,-134.16000366210938,25.439998626708984
1773231967584755700,20.174755615234375,-200.87998962402344,-135.05999755859375,26.399999618530273
1773231967600747500,20.19074755859375,-200.94000244140625,-136.5,27.119998931884766
1773231967616738300,20.20673828125,-200.63999938964844,-137.75999450683594,27.35999870300293
1773231967632730600,20.222730712890623,-200.63999938964844,-138.72000122070312,27.479999542236328
1773231967648751900,20.238751953125,-200.22000122070312,-139.55999755859375,27.599998474121094
1773231967664743200,20.2547431640625,-199.67999267578125,-139.86000061035156,28.5
1773231967680733000,20.27073291015625,-199.86000061035156,-140.27999877929688,28.799999237060547
1773231967696725200,20.286725341796874,-200.1599884033203,-141.05999755859375,28.559999465942383
1773231967712746800,20.302746826171877,-199.8000030517578,-140.75999450683594,28.85999870300293
1773231967728738000,20.318738037109377,-199.739990234375,-140.45999145507812,30
1773231967744729300,20.334729248046877,-199.86000061035156,-140.09999084472656,30.84000015258789
1773231967760750300,20.350750244140624,-199.86000061035156,-138.5399932861328,31.079999923706055
1773231967776740400,20.366740234375,-200.33999633789062,-137.8199920654297,31.19999885559082
1773231967792734200,20.382734130859376,-200.75999450683594,-137.45999145507812,31.3799991607666
1773231967808724200,20.39872412109375,-201.239990234375,-135.4199981689453,32.040000915527344
1773231967824745500,20.414745361328126,-201.89999389648438,-133.6199951171875,32.880001068115234
1773231967840738300,20.43073828125,-202.44000244140625,-131.8199920654297,33.05999755859375
1773231967856727800,20.446727783203126,-202.37998962402344,-129.83999633789062,32.52000045776367
1773231967872750000,20.46275,-202.739990234375,-127.97999572753906,32.81999969482422
1773231967888740400,20.478740234375,-203.33999633789062,-126.1199951171875,33
1773231967904732000,20.49473193359375,-203.5800018310547,-124.79999542236328,32.39999771118164
1773231967920755200,20.510755126953125,-204.239990234375,-123.77999877929688,31.799999237060547
1773231967936746500,20.52674658203125,-205.01998901367188,-121.86000061035156,31.260000228881836
1773231967952736000,20.542736083984376,-205.25999450683594,-119.5199966430664,30.779998779296875
1773231967968729000,20.55872900390625,-205.3199920654297,-118.55999755859375,30.119998931884766
1773231967984748800,20.574748779296876,-205.13999938964844,-117.41999816894531,29.69999885559082
1773231968000742400,20.590742431640624,-205.739990234375,-116.27999877929688,28.799999237060547
1773231968016731400,20.6067314453125,-206.63999938964844,-115.07999420166016,27.899999618530273
1773231968032755000,20.6227548828125,-206.5800018310547,-114.72000122070312,27
1773231968048745000,20.638744873046875,-206.8199920654297,-113.45999908447266,25.920000076293945
1773231968064736000,20.654736083984375,-207.1199951171875,-111.77999877929688,25.619998931884766
1773231968080727000,20.67072705078125,-207,-111.47999572753906,24.959999084472656
1773231968096748000,20.686748046875,-207.6599884033203,-109.91999816894531,24
1773231968112741000,20.7027412109375,-208.1999969482422,-108.18000030517578,23.279998779296875
1773231968128732400,20.718732421875,-207.5399932861328,-107.39999389648438,22.739999771118164
1773231968144753200,20.734753173828125,-207.5399932861328,-106.86000061035156,22.020000457763672
1773231968160744200,20.750744140625,-208.13999938964844,-106.19999694824219,21
1773231968176735500,20.766735595703125,-208.739990234375,-105.36000061035156,20.939998626708984
1773231968192728300,20.782728271484373,-208.6199951171875,-104.93999481201172,21.18000030517578
