time,seconds_elapsed,z,y,x
1773231947712703000,0.302702880859375,13.120224952697754,1.3623007535934448,0.7038952708244324
1773231947728726300,0.318726318359375,12.902353286743164,1.6543933153152466,0.3878606855869293
1773231947744717600,0.334717529296875,13.172897338867188,1.659181833267212,-0.2968810200691223
1773231947760738300,0.35073828125,13.759477615356445,1.2545616626739502,-0.8547300100326538
1773231947776729600,0.3667294921875,12.624625205993652,1.3551181554794312,-0.5003881454467773
1773231947792723500,0.382723388671875,11.3269681930542,1.4077905416488647,-0.24420857429504395
1773231947808744700,0.39874462890625,10.371682167053223,1.2545616626739502,-0.40940847992897034
1773231947824735200,0.4147353515625,9.397241592407227,1.2330138683319092,-0.6320692300796509
1773231947840727300,0.430727294921875,8.434772491455078,1.3048399686813354,-0.5051765441894531
1773231947856718800,0.44671875,7.589619159698486,1.4700398445129395,-0.42377370595932007
1773231947872739600,0.462739501953125,7.311892032623291,1.6759412288665771,-0.3447650372982025
1773231947888729900,0.478729736328125,7.682993412017822,1.6184803247451782,-0.17956513166427612
1773231947904720600,0.494720703125,8.044517517089844,1.4915876388549805,-0.3064578175544739
1773231947920743200,0.5107431640625,7.649474620819092,1.1444283723831177,0.12449848651885986
1773231947936734700,0.526734619140625,7.070077419281006,1.7884687185287476,-0.05746084079146385
1773231947952726800,0.542726806640625,6.720524311065674,2.0638017654418945,-0.4357447028160095
1773231947968717600,0.558717529296875,6.440402507781982,2.142810583114624,-0.47884035110473633
1773231947984737500,0.574737548828125,6.0190229415893555,2.169146776199341,-0.3687070608139038
1773231948000729300,0.590729248046875,6.143521785736084,2.4181437492370605,-0.28969839215278625
1773231948016722200,0.60672216796875,6.950367450714111,2.7006595134735107,-0.3711012601852417
1773231948032743200,0.6227431640625,7.836222171783447,2.6671407222747803,-0.6967126727104187
1773231948048735000,0.63873486328125,8.62630844116211,2.5306711196899414,-0.9385270476341248
1773231948064725500,0.6547255859375,9.10993766784668,2.607285737991333,-1.0438719987869263
1773231948080715300,0.67071533203125,9.081207275390625,2.6815059185028076,-0.912190854549408
1773231948096737500,0.686737548828125,9.107542991638184,2.631227731704712,-0.9552865028381348
1773231948112730000,0.702730224609375,10.096348762512207,2.849100112915039,-1.1444283723831177
1773231948128720400,0.718720458984375,11.137825965881348,2.7509377002716064,-1.213860273361206
1773231948144743200,0.7347431640625,12.385205268859863,2.5474305152893066,-1.1492167711257935
1773231948160734500,0.750734375,11.93748950958252,2.5953147411346436,-0.3758896589279175
1773231948176726300,0.766726318359375,11.190498352050781,2.964021682739258,-0.24181437492370605
1773231948192716500,0.782716552734375,10.338163375854492,2.63362193107605,-0.3471592366695404
1773231948208738600,0.798738525390625,10.335768699645996,3.2776620388031006,-1.4053963422775269
1773231948224729000,0.81472900390625,11.334151268005371,3.581725835800171,-2.3247697353363037
1773231948240721000,0.830720947265625,13.826515197753906,3.045424461364746,-2.382230758666992
1773231948256741600,0.84674169921875,16.115371704101562,2.0590133666992188,-1.7262194156646729
1773231948272733200,0.862733154296875,16.062698364257812,1.4293384552001953,-1.094150185585022
1773231948288723500,0.878723388671875,14.204798698425293,1.6160861253738403,-0.6200982332229614
1773231948304716500,0.894716552734375,11.889605522155762,1.8555063009262085,-0.3711012601852417
1773231948320737800,0.91073779296875,10.189722061157227,1.824381709098816,-0.009576806798577309
1773231948336729600,0.9267294921875,9.263166427612305,1.680729627609253,-0.17956513166427612
1773231948352721000,0.942720947265625,8.516175270080566,1.9967641830444336,-0.07422025501728058
1773231948368742100,0.9587421875,7.833827972412109,2.4396915435791016,0.3471592366695404
1773231948384734000,0.97473388671875,6.287173748016357,2.494758129119873,-0.8667010068893433
1773231948400722200,0.99072216796875,5.621585369110107,2.4468741416931152,-2.5091233253479004
1773231948416714800,1.00671484375,5.861005783081055,2.5474305152893066,-2.7006595134735107
1773231948432737000,1.022737060546875,6.3973069190979,2.9089550971984863,-2.5977089405059814
1773231948448727300,1.038727294921875,6.449979305267334,2.695871114730835,-2.1116859912872314
1773231948464720400,1.054720458984375,6.141127586364746,2.3989901542663574,-1.3766659498214722
1773231948480740600,1.07074072265625,5.767632007598877,2.43011474609375,-0.26336219906806946
1773231948496733000,1.08673291015625,5.774814605712891,2.698265314102173,1.5729905366897583
1773231948512723500,1.102723388671875,5.856217384338379,2.738966703414917,2.693476915359497
1773231948528714000,1.1187138671875,5.659893035888672,2.557007312774658,2.5282769203186035
1773231948544736500,1.134736572265625,5.602431774139404,2.494758129119873,1.170764684677124
1773231948560726800,1.150726806640625,6.646304130554199,2.2170307636260986,-0.08140286058187485
1773231948576720600,1.166720703125,8.336610794067383,1.434126853942871,0.2298433631658554
1773231948592742000,1.182741943359375,10.448296546936035,2.013523578643799,0.07422025501728058
1773231948608731000,1.19873095703125,11.839327812194824,2.564189910888672,-0.5434837937355042
1773231948624722700,1.21472265625,11.777078628540039,2.5091233253479004,-1.4077905416488647
1773231948640745200,1.2307451171875,11.099518775939941,2.518700122833252,-1.623268723487854
1773231948656735700,1.24673583984375,10.867281913757324,2.8227639198303223,-0.9744400978088379
1773231948672726800,1.262726806640625,11.365275382995605,2.851494312286377,-0.849941611289978
1773231948688719400,1.27871923828125,12.033257484436035,2.5019407272338867,-1.7286136150360107
1773231948704740600,1.29474072265625,12.320562362670898,2.3511061668395996,-2.1978771686553955
1773231948720729900,1.310729736328125,12.389993667602539,2.607285737991333,-1.944091796875
1773231948736724000,1.326723876953125,12.356474876403809,2.715024709701538,-1.8962076902389526
1773231948752714500,1.342714599609375,12.715604782104492,2.142810583114624,-2.1380221843719482
1773231948768734700,1.358734619140625,13.323732376098633,1.922544002532959,-2.4684219360351562
1773231948784726500,1.3747265625,13.448230743408203,1.3287819623947144,-2.2912509441375732
1773231948800717300,1.39071728515625,12.67011547088623,0.9241618514060974,-1.7717092037200928
1773231948816740600,1.40674072265625,11.338939666748047,0.7972691655158997,-1.6950948238372803
1773231948832730400,1.42273046875,9.768342971801758,1.015141487121582,-1.9033904075622559
1773231948848722000,1.438721923828125,8.542511940002441,1.4652514457702637,-2.0254945755004883
1773231948864741600,1.45474169921875,7.412448406219482,1.7070658206939697,-1.8962076902389526
1773231948880734500,1.470734375,7.321468830108643,1.7764976024627686,-1.8195933103561401
1773231948896727000,1.48672705078125,7.886500358581543,1.4963760375976562,-1.5490485429763794
1773231948912717300,1.50271728515625,8.111555099487305,1.3000515699386597,-0.993593692779541
1773231948928739000,1.518739013671875,7.592013359069824,1.4844050407409668,-0.5003881454467773
1773231948944731000,1.53473095703125,6.6391215324401855,1.8291701078414917,-0.40701428055763245
1773231948960722200,1.55072216796875,5.884947776794434,2.343923568725586,-0.49320554733276367
1773231948976743400,1.566743408203125,5.509057998657227,2.829946517944336,-0.6416460275650024
1773231948992734200,1.582734130859375,5.394136428833008,3.028665065765381,-0.8044517636299133
1773231949008726300,1.598726318359375,5.700594425201416,3.1100680828094482,-0.7996633648872375
1773231949024717300,1.61471728515625,6.469132900238037,3.0382418632507324,-0.5051765441894531
1773231949040739300,1.6307392578125,7.395689010620117,2.9448680877685547,-0.5171475410461426
1773231949056731100,1.646731201171875,8.190564155578613,3.0597896575927734,-0.9528923034667969
1773231949072722000,1.662721923828125,8.695740699768066,2.9712042808532715,-1.1252747774124146
1773231949088742700,1.67874267578125,9.552865028381348,2.7724854946136475,-0.9816226959228516
1773231949104733200,1.694733154296875,10.342951774597168,2.58813214302063,-0.8690952062606812
1773231949120725500,1.7107255859375,11.288661003112793,2.647987127304077,-1.113303780555725
1773231949136717300,1.72671728515625,11.647790908813477,2.607285737991333,-1.2880805730819702
1773231949152738800,1.74273876953125,11.592724800109863,2.6815059185028076,-0.871489405632019
1773231949168729900,1.758729736328125,11.240777015686035,2.695871114730835,-0.26815059781074524
1773231949184721200,1.77472119140625,11.274295806884766,2.5761611461639404,-0.10773907601833344
1773231949200743000,1.790742919921875,11.288661003112793,2.580949544906616,-0.10055647045373917
1773231949216734500,1.806734375,10.912771224975586,2.5498247146606445,0.15801730751991272
1773231949232725000,1.82272509765625,10.572794914245605,2.427720546722412,0.304063618183136
1773231949248716500,1.838716552734375,11.851298332214355,2.207453966140747,-0.2322375625371933
1773231949264735700,1.85473583984375,14.051569938659668,1.4269442558288574,-1.292868971824646
1773231949280729600,1.8707294921875,15.176844596862793,0.5171475410461426,-1.8315643072128296
1773231949296721000,1.886720947265625,13.984532356262207,0.18914192914962769,-1.213860273361206
1773231949312742700,1.90274267578125,11.463438034057617,0.6416460275650024,-0.5291185975074768
1773231949328733700,1.918733642578125,8.96149730682373,1.0103530883789062,0.2777273952960968
1773231949344722700,1.93472265625,7.5848307609558105,1.3479355573654175,0.40462008118629456
1773231949360716500,1.950716552734375,7.218518257141113,1.4867992401123047,0.2992752194404602
1773231949376736300,1.966736328125,7.5201873779296875,1.41257905960083,-0.11252748221158981
1773231949392728600,1.982728515625,8.142680168151855,1.280897855758667,-0.5506663918495178
1773231949408719400,1.99871923828125,8.374917984008789,1.113303780555725,-0.6248866319656372
1773231949424740000,2.014739990234375,8.157045364379883,1.1492167711257935,-0.4908113479614258
1773231949440733200,2.030733154296875,7.838616371154785,1.2449848651885986,-0.24899697303771973
1773231949456724200,2.04672412109375,7.228095054626465,1.314416766166687,-0.10773907601833344
1773231949472715000,2.062715087890625,6.495469093322754,1.4245500564575195,0.023942016065120697
1773231949488737300,2.0787373046875,7.292738437652588,1.7932571172714233,0.37828385829925537
1773231949504728600,2.094728515625,7.0126166343688965,1.3623007535934448,0.06224924325942993
1773231949520718300,2.11071826171875,7.311892032623291,1.5849615335464478,0.11252748221158981
1773231949536742000,2.126741943359375,7.2352776527404785,1.8411411046981812,0.3447650372982025
1773231949552733000,2.14273291015625,7.457938194274902,2.0638017654418945,0.3519476354122162
1773231949568721400,2.158721435546875,7.9176249504089355,2.118868589401245,-0.07900865375995636
1773231949584713500,2.17471337890625,9.026140213012695,2.1140801906585693,-0.3232172429561615
1773231949600736000,2.190736083984375,10.098742485046387,1.9369091987609863,-0.3926490843296051
1773231949616727000,2.20672705078125,10.42195987701416,1.86508309841156,-0.3016694188117981
1773231949632719400,2.22271923828125,10.24239444732666,2.1787235736846924,-0.14844051003456116
1773231949648742000,2.238741943359375,10.11550235748291,2.229001760482788,-0.06464344263076782
1773231949664732200,2.254732177734375,10.426748275756836,2.2170307636260986,-0.3878606855869293
1773231949680723500,2.270723388671875,10.919954299926758,2.1954829692840576,-0.9816226959228516
1773231949696714200,2.28671435546875,11.496956825256348,2.0925323963165283,-1.0845733880996704
1773231949712736500,2.302736572265625,12.148179054260254,2.1547815799713135,-1.192312479019165
1773231949728727600,2.3187275390625,12.871228218078613,2.1068975925445557,-1.6089035272598267
1773231949744717300,2.33471728515625,13.917494773864746,1.745373010635376,-2.0685901641845703
1773231949760740000,2.350739990234375,15.018827438354492,1.1659762859344482,-2.250549554824829
1773231949776732200,2.366732177734375,15.227123260498047,0.4620809257030487,-2.3056161403656006
1773231949792722200,2.38272216796875,14.171279907226562,-0.043095629662275314,-1.8794482946395874
1773231949808743200,2.3987431640625,12.260706901550293,-0.08858546614646912,-1.6615760326385498
1773231949824734700,2.414734619140625,10.376470565795898,0.05746084079146385,-1.7836803197860718
1773231949840727000,2.43072705078125,8.47786808013916,0.44771572947502136,-1.8387469053268433
1773231949856718300,2.44671826171875,6.694188117980957,0.8092401623725891,-1.5107412338256836
1773231949872738300,2.46273828125,6.0621185302734375,0.950498104095459,-1.1324573755264282
1773231949888730000,2.478730224609375,6.861782073974609,0.730231523513794,-1.0606313943862915
1773231949904722000,2.494721923828125,8.379706382751465,0.5913678407669067,-0.912190854549408
1773231949920743000,2.510742919921875,8.89685344696045,0.5985504388809204,-0.768538773059845
1773231949936736300,2.526736328125,7.793126583099365,0.9959878921508789,-0.7757213711738586
1773231949952725800,2.542725830078125,6.215347766876221,1.5322890281677246,-0.5961562395095825
1773231949968717800,2.5587177734375,5.374982833862305,1.886630892753601,-0.3758896589279175
1773231949984736500,2.574736572265625,5.568912982940674,2.0901381969451904,-0.3423708379268646
1773231950000730600,2.590730712890625,5.995080947875977,2.473210334777832,-0.2753331959247589
1773231950016722000,2.606721923828125,6.517016887664795,2.5019407272338867,-0.9457096457481384
1773231950032743000,2.622742919921875,6.7708024978637695,2.5474305152893066,-1.3527239561080933
1773231950048734500,2.638734375,7.4316020011901855,2.8658595085144043,-1.3000515699386597
1773231950064725200,2.654725341796875,8.362946510314941,2.9759926795959473,-1.2425906658172607
1773231950080717000,2.670717041015625,9.294290542602539,2.9328970909118652,-1.3215993642807007
1773231950096739600,2.686739501953125,9.725247383117676,3.141192674636841,-1.5873557329177856
1773231950112729600,2.7027294921875,10.153809547424316,3.397372245788574,-1.922544002532959
1773231950128721000,2.718720947265625,10.986991882324219,3.335123062133789,-2.2146365642547607
1773231950144742400,2.734742431640625,11.6430025100708,3.2848446369171143,-2.537853717803955
1773231950160734200,2.750734130859375,11.702857971191406,3.5745432376861572,-2.3032219409942627
1773231950176725500,2.7667255859375,11.456254959106445,3.6104562282562256,-2.188300371170044
1773231950192717000,2.782717041015625,11.257535934448242,3.426102638244629,-2.5977089405059814
1773231950208738300,2.79873828125,11.475408554077148,3.7924153804779053,-2.585737943649292
1773231950224729600,2.8147294921875,11.238382339477539,4.611232280731201,-2.6192567348480225
1773231950240720600,2.830720703125,11.013327598571777,5.190629482269287,-3.2752678394317627
1773231950256742700,2.84674267578125,11.396400451660156,5.128379821777344,-4.165910720825195
1773231950272733700,2.862733642578125,12.411541938781738,4.343081951141357,-5.310339450836182
1773231950288725200,2.878725341796875,13.139378547668457,3.050212860107422,-5.1116204261779785
1773231950304714800,2.89471484375,12.313379287719727,2.056619167327881,-3.246537446975708
1773231950320737800,2.91073779296875,10.237606048583984,1.4053963422775269,-1.1516109704971313
1773231950336726800,2.926726806640625,8.274360656738281,2.1164743900299072,-0.7709329724311829
1773231950352719600,2.9427197265625,7.043741226196289,2.2385785579681396,-1.1563993692398071
1773231950368742000,2.958741943359375,7.8529815673828125,2.298433542251587,-2.4205379486083984
1773231950384733400,2.9747333984375,7.443572998046875,2.008735179901123,-3.2178070545196533
1773231950400725000,2.99072509765625,7.015010833740234,1.9943699836730957,-3.3039982318878174
1773231950416716300,3.00671630859375,5.626373767852783,2.0901381969451904,-3.134010076522827
1773231950432734700,3.022734619140625,4.3406877517700195,2.231395959854126,-2.8227639198303223
1773231950448728600,3.038728515625,2.9233202934265137,2.300827741622925,-2.5498247146606445
1773231950464717800,3.0547177734375,2.736572504043579,1.9919757843017578,-1.8267759084701538
1773231950480740400,3.070740234375,1.9297266006469727,1.5083470344543457,-1.0223240852355957
1773231950496487200,3.086487060546875,1.946485996246338,1.6160861253738403,-0.8858546018600464
1773231950512724500,3.102724365234375,2.7988216876983643,1.968033790588379,-1.256955862045288
1773231950528713200,3.118713134765625,3.2082302570343018,2.403778553009033,-2.145204782485962
1773231950544736800,3.13473681640625,2.0685901641845703,2.319981336593628,-2.3965959548950195
1773231950560726500,3.1507265625,1.2066776752471924,1.7908629179000854,-2.161964178085327
1773231950576717800,3.1667177734375,1.7501614093780518,1.2641384601593018,-1.6759412288665771
1773231950592739800,3.18273974609375,2.499546527862549,0.8858546018600464,-1.5203180313110352
1773231950608732200,3.198732177734375,2.4444799423217773,0.5027823448181152,-1.7908629179000854
1773231950624724200,3.21472412109375,1.534683346748352,-0.1412578970193863,-2.0470423698425293
1773231950640714800,3.23071484375,1.091755986213684,-0.6416460275650024,-3.3303346633911133
1773231950656737300,3.2467373046875,1.5634137392044067,-1.1779472827911377,-4.436455726623535
1773231950672727300,3.262727294921875,2.0853497982025146,-1.7980455160140991,-6.586448669433594
1773231950688717800,3.2787177734375,0.7134721279144287,-2.8107926845550537,-7.740454196929932
1773231950704741600,3.29474169921875,-1.1563993692398071,-3.6822822093963623,-7.977479934692383
1773231950720730600,3.310730712890625,-2.449268341064453,-4.400542736053467,-10.819397926330566
1773231950736722400,3.326722412109375,-0.3016694188117981,-4.941632270812988,-12.253523826599121
1773231950752713700,3.342713623046875,1.6400281190872192,-5.846640586853027,-13.895946502685547
1773231950768735500,3.358735595703125,1.9608511924743652,-6.588842868804932,-14.439430236816406
1773231950784726800,3.374726806640625,1.8746598958969116,-7.508216381072998,-14.695610046386719
1773231950800718600,3.390718505859375,1.6759412288665771,-8.274360656738281,-14.889540672302246
1773231950816740400,3.406740234375,1.3096283674240112,-9.160215377807617,-15.179238319396973
1773231950832731400,3.4227314453125,0.8044517636299133,-9.586383819580078,-16.172832489013672
1773231950848723000,3.438722900390625,0.7015010714530945,-9.919178009033203,-16.33563804626465
1773231950864744200,3.454744140625,-0.07661445438861847,-10.012551307678223,-16.316484451293945
1773231950880735500,3.470735595703125,-0.40940847992897034,-9.579200744628906,-15.813702583312988
1773231950896725800,3.486725830078125,-0.18914192914962769,-8.362946510314941,-15.705963134765625
1773231950912716300,3.50271630859375,0.07661445438861847,-6.414066314697266,-16.613365173339844
1773231950928738600,3.518738525390625,0.23702596127986908,-4.654327869415283,-17.81525421142578
1773231950944730400,3.53473046875,-0.3734954595565796,-3.821146011352539,-17.750612258911133
1773231950960719600,3.5507197265625,-0.5961562395095825,-3.399766445159912,-16.203956604003906
1773231950976712200,3.566712158203125,-0.3016694188117981,-3.1052796840667725,-14.190433502197266
1773231950992735000,3.58273486328125,-0.1843535304069519,-2.9496564865112305,-12.303802490234375
1773231951008724700,3.598724853515625,-0.10055647045373917,-2.7461493015289307,-11.293449401855469
1773231951024717600,3.614717529296875,-0.4620809257030487,-2.6168625354766846,-11.18092155456543
1773231951040738300,3.63073828125,-0.5339069962501526,-2.7006595134735107,-10.8720703125
1773231951056730400,3.64673046875,-0.2849099934101105,-2.719813108444214,-10.522516250610352
1773231951072721200,3.66272119140625,-0.05506663769483566,-2.477998733520508,-10.371682167053223
1773231951088743700,3.67874365234375,0.06464344263076782,-2.3104045391082764,-10.156203269958496
1773231951104733700,3.694733642578125,0.14844051003456116,-2.190694570541382,-9.964667320251465
1773231951120724500,3.710724365234375,0.2346317619085312,-2.513911724090576,-9.928754806518555
1773231951136717000,3.726717041015625,0.4644751250743866,-3.0382418632507324,-10.113107681274414
1773231951152739300,3.7427392578125,0.8906430602073669,-3.5482068061828613,-10.500968933105469
1773231951168727300,3.758727294921875,1.2880805730819702,-4.1156325340271,-11.554417610168457
1773231951184721200,3.77472119140625,1.292868971824646,-4.240131378173828,-12.655750274658203
1773231951200743000,3.790742919921875,0.8690952062606812,-4.125209331512451,-13.345280647277832
1773231951216734000,3.80673388671875,0.5841852426528931,-4.759673118591309,-14.293384552001953
1773231951232725200,3.822725341796875,0.8786720037460327,-5.935225963592529,-15.28218936920166
1773231951248715300,3.83871533203125,1.644816517829895,-5.853823184967041,-15.696386337280273
1773231951264738000,3.854738037109375,2.0398597717285156,-5.276820659637451,-16.017210006713867
1773231951280726800,3.870726806640625,1.4628572463989258,-4.668693542480469,-16.488866806030273
1773231951296720400,3.886720458984375,0.4381389021873474,-4.824316501617432,-17.537527084350586
1773231951312742100,3.9027421875,-0.2106897532939911,-5.738901615142822,-18.669984817504883
1773231951328733000,3.91873291015625,-0.5051765441894531,-7.196970462799072,-18.933347702026367
1773231951344723200,3.93472314453125,-0.7158663272857666,-8.791508674621582,-18.58139991760254
1773231951360747000,3.9507470703125,-0.49320554733276367,-10.290278434753418,-17.448942184448242
1773231951376737300,3.9667373046875,-0.20350714027881622,-10.891223907470703,-15.780183792114258
1773231951392728800,3.982728759765625,-0.26336219906806946,-10.60152530670166,-14.255077362060547
1773231951408720100,3.99872021484375,-0.5386953949928284,-10.27591323852539,-12.715604782104492
1773231951424740600,4.01474072265625,-0.727837324142456,-9.799467086791992,-11.281478881835938
1773231951440733400,4.0307333984375,-0.9672574996948242,-9.493009567260742,-9.938331604003906
1773231951456721700,4.0467216796875,-1.2545616626739502,-9.165003776550293,-8.992621421813965
1773231951472744700,4.06274462890625,-1.5155296325683594,-8.712499618530273,-7.864952564239502
1773231951488735700,4.07873583984375,-1.4437036514282227,-8.508993148803711,-6.44279670715332
1773231951504727600,4.0947275390625,-1.2497732639312744,-8.037335395812988,-4.963180065155029
1773231951520719600,4.1107197265625,-1.1683704853057861,-7.5201873779296875,-4.089296340942383
1773231951536741600,4.12674169921875,-1.2401964664459229,-7.187393665313721,-3.581725835800171
1773231951552732400,4.142732421875,-1.3646949529647827,-6.840234279632568,-3.157952070236206
1773231951568723500,4.158723388671875,-1.5490485429763794,-6.402095317840576,-2.6791117191314697
1773231951584715500,4.174715576171875,-1.644816517829895,-6.110002517700195,-2.188300371170044
1773231951600736800,4.19073681640625,-1.659181833267212,-6.023811340332031,-2.0207061767578125
1773231951616726800,4.206726806640625,-1.6711528301239014,-5.872976779937744,-1.6831238269805908
1773231951632719400,4.22271923828125,-1.8052281141281128,-5.975927352905273,-1.7764976024627686
1773231951648738300,4.23873828125,-2.049436569213867,-6.200982570648193,-1.9512743949890137
1773231951664731100,4.254731201171875,-2.2649147510528564,-6.452373504638672,-2.1571757793426514
1773231951680722000,4.270721923828125,-2.5282769203186035,-6.742072105407715,-2.5450363159179688
1773231951696714800,4.28671484375,-2.647987127304077,-6.854599475860596,-3.004723072052002
1773231951712736800,4.30273681640625,-2.360682964324951,-7.249642848968506,-3.646369218826294
1773231951728726300,4.318726318359375,-1.9608511924743652,-7.893682956695557,-4.618414878845215
1773231951744718300,4.33471826171875,-1.8986018896102905,-8.307879447937012,-5.875370979309082
1773231951760740400,4.350740234375,-2.161964178085327,-8.853757858276367,-7.1706342697143555
1773231951776730400,4.36673046875,-2.449268341064453,-9.215282440185547,-8.415618896484375
1773231951792721700,4.3827216796875,-2.518700122833252,-9.591172218322754,-9.481039047241211
1773231951808712400,4.39871240234375,-2.1930887699127197,-9.612719535827637,-10.623072624206543
1773231951824736000,4.414736083984375,-1.6424223184585571,-9.682151794433594,-11.999738693237305
1773231951840724500,4.430724365234375,-1.015141487121582,-9.651026725769043,-13.306973457336426
1773231951856718600,4.446718505859375,-0.5339069962501526,-9.208099365234375,-13.905523300170898
1773231951872739600,4.462739501953125,-0.24181437492370605,-8.226476669311523,-13.55357551574707
1773231951888731600,4.478731689453125,-0.23702596127986908,-6.888118267059326,-12.619836807250977
1773231951904721400,4.494721435546875,-0.47884035110473633,-5.746084213256836,-11.93509578704834
1773231951920743200,4.5107431640625,-1.0295066833496094,-5.013458251953125,-11.480196952819824
1773231951936734200,4.526734130859375,-1.7741034030914307,-4.738125324249268,-11.17852783203125
1773231951952726500,4.5427265625,-2.2888567447662354,-4.807557106018066,-10.881647109985352
1773231951968717600,4.558717529296875,-2.341529369354248,-4.888959884643555,-10.38604736328125
1773231951984737800,4.57473779296875,-2.166752576828003,-5.125985622406006,-9.943120002746582
1773231952000730400,4.59073046875,-2.03507137298584,-4.857835292816162,-9.971850395202637
1773231952016722000,4.606721923828125,-1.9991583824157715,-4.616020679473877,-10.268731117248535
1773231952032744200,4.622744140625,-1.778891921043396,-4.335899353027344,-10.790667533874512
1773231952048735200,4.6387353515625,-1.5107412338256836,-3.952826976776123,-11.073183059692383
1773231952064724500,4.654724365234375,-1.400607943534851,-3.5936968326568604,-11.374852180480957
1773231952080717300,4.67071728515625,-1.2186486721038818,-3.287238836288452,-11.60708999633789
1773231952096738000,4.686738037109375,-0.8978256583213806,-2.9951462745666504,-11.578359603881836
1773231952112729300,4.702729248046875,-0.5578489899635315,-2.806004285812378,-11.832144737243652
1773231952128722000,4.718721923828125,-0.42616790533065796,-2.849100112915039,-12.495338439941406
1773231952144743200,4.7347431640625,-0.3280056416988373,-3.0765492916107178,-13.165715217590332
1773231952160731600,4.750731689453125,-0.023942016065120697,-3.3207578659057617,-13.515268325805664
1773231952176725800,4.766725830078125,0.42856210470199585,-3.3494882583618164,-13.687650680541992
1773231952192715000,4.782715087890625,0.7015010714530945,-3.1938650608062744,-13.910311698913574
1773231952208736500,4.798736572265625,0.8643068075180054,-3.141192674636841,-14.295778274536133
1773231952224729900,4.814729736328125,1.0558429956436157,-4.323928356170654,-15.51921558380127
1773231952240719000,4.830718994140625,1.259350061416626,-5.157110691070557,-16.725893020629883
1773231952256742400,4.846742431640625,1.5873557329177856,-4.90571928024292,-17.039533615112305
1773231952272733400,4.8627333984375,1.4173674583435059,-4.285621166229248,-17.046716690063477
1773231952288725200,4.878725341796875,0.5578489899635315,-4.359841346740723,-16.991649627685547
1773231952304716800,4.894716796875,-0.028730420395731926,-4.941632270812988,-16.90066909790039
1773231952320738600,4.910738525390625,-0.09816227108240128,-6.268020153045654,-16.76898956298828
1773231952336729300,4.926729248046875,-0.22026655077934265,-7.876923561096191,-16.570270538330078
1773231952352720000,4.942719970703125,-0.47884035110473633,-9.02135181427002,-16.086641311645508
1773231952368739800,4.95873974609375,-0.7015010714530945,-9.68933391571045,-15.545551300048828
1773231952384732400,4.974732421875,-0.8020575642585754,-9.998186111450195,-14.889540672302246
1773231952400724200,4.99072412109375,-0.811634361743927,-9.931148529052734,-14.140154838562012
1773231952416713000,5.006712890625,-0.9217676520347595,-9.68694019317627,-13.172897338867188
1773231952432737300,5.0227373046875,-0.6560112833976746,-9.646238327026367,-11.994950294494629
1773231952448727800,5.038727783203125,-0.569819986820221,-9.63187313079834,-10.321403503417969
1773231952464720000,5.054719970703125,-0.28969839215278625,-9.397241592407227,-8.372523307800293
1773231952480740400,5.070740234375,-0.10055647045373917,-9.02135181427002,-7.254431247711182
1773231952496730600,5.086730712890625,-0.17238251864910126,-8.753201484680176,-6.260837554931641
1773231952512723200,5.10272314453125,-0.1867477297782898,-8.382100105285645,-5.264849662780762
1773231952528715800,5.1187158203125,-0.06464344263076782,-7.85537576675415,-4.76924991607666
1773231952544736000,5.134736083984375,-0.3519476354122162,-7.3885064125061035,-4.489128112792969
1773231952560726500,5.1507265625,-0.8188169598579407,-7.079654216766357,-4.367023944854736
1773231952576718300,5.16671826171875,-1.2401964664459229,-6.976703643798828,-4.469974517822266
1773231952592740400,5.182740234375,-1.4844050407409668,-6.785167694091797,-3.7852327823638916
1773231952608733000,5.19873291015625,-1.5825673341751099,-6.636727333068848,-3.1962592601776123
1773231952624722000,5.214721923828125,-1.6496049165725708,-6.689399719238281,-2.8634653091430664
1773231952640714800,5.23071484375,-1.7693150043487549,-6.787561893463135,-2.853888511657715
1773231952656736800,5.24673681640625,-1.8938134908676147,-7.005434036254883,-3.1004912853240967
1773231952672726000,5.26272607421875,-2.190694570541382,-7.12035608291626,-3.643975019454956
1773231952688717000,5.278717041015625,-2.6216509342193604,-7.184999465942383,-4.039018154144287
1773231952704740600,5.29474072265625,-2.7892448902130127,-7.3669586181640625,-4.371812343597412
1773231952720731000,5.31073095703125,-2.477998733520508,-7.862558364868164,-4.99669885635376
1773231952736722000,5.326721923828125,-1.9512743949890137,-8.200140953063965,-5.556941986083984
1773231952752744700,5.34274462890625,-1.5849615335464478,-8.611943244934082,-6.3518171310424805
1773231952768736500,5.358736572265625,-1.6400281190872192,-8.609549522399902,-7.168240070343018
1773231952784726800,5.374726806640625,-1.7166426181793213,-8.382100105285645,-7.960720539093018
1773231952800716500,5.390716552734375,-1.5418659448623657,-8.04691219329834,-8.712499618530273
1773231952816740400,5.406740234375,-0.9696516990661621,-7.781155586242676,-9.495404243469238
1773231952832730400,5.42273046875,-0.4596867263317108,-7.7643961906433105,-10.594342231750488
1773231952848723000,5.438722900390625,-0.26096799969673157,-7.783549785614014,-11.456254959106445
1773231952864713200,5.454713134765625,-0.4118026793003082,-7.68538761138916,-12.035652160644531
1773231952880734200,5.470734130859375,-0.8547300100326538,-7.173028469085693,-11.508927345275879
1773231952896727000,5.48672705078125,-1.1803414821624756,-6.354211330413818,-10.424354553222656
1773231952912717800,5.5027177734375,-1.3718775510787964,-5.434837818145752,-9.871294021606445
1773231952928738300,5.51873828125,-1.5682021379470825,-4.750096321105957,-9.742006301879883
1773231952944731600,5.534731689453125,-1.7190368175506592,-4.481945514678955,-9.93354320526123
1773231952960962800,5.550962890625,-2.030282974243164,-4.656722068786621,-10.125079154968262
1773231952976649500,5.5666494140625,-2.1595699787139893,-4.81473970413208,-9.77791976928711
1773231952988357000,5.578357177734375,-2.0877439975738525,-4.838681697845459,-9.150638580322266
1773231953004664600,5.59466455078125,-1.8579005002975464,-5.035006046295166,-8.865729331970215
1773231953020655900,5.61065576171875,-1.7286136150360107,-5.171475887298584,-9.062053680419922
1773231953036676600,5.626676513671875,-1.5155296325683594,-5.073313236236572,-9.47146224975586
1773231953052669700,5.642669677734375,-1.4508862495422363,-4.917690277099609,-10.031704902648926
1773231953068675000,5.658675048828125,-1.5705963373184204,-4.637568473815918,-10.515334129333496
1773231953084651300,5.6746513671875,-1.45806884765625,-4.553771495819092,-10.699687004089355
1773231953100670700,5.690670654296875,-1.1252747774124146,-4.302380561828613,-10.682928085327148
1773231953116664600,5.70666455078125,-0.7972691655158997,-3.955221176147461,-10.83855152130127
1773231953132655600,5.722655517578125,-0.7350199222564697,-3.7924153804779053,-11.595118522644043
1773231953148675600,5.738675537109375,-0.9265560507774353,-3.9695863723754883,-12.650961875915527
1773231953164668200,5.754668212890625,-0.8571242094039917,-4.077325344085693,-13.30218505859375
1773231953180659700,5.77065966796875,-0.586579442024231,-4.089296340942383,-13.836091995239258
1773231953196648400,5.7866484375,-0.4884171485900879,-4.072536945343018,-14.24071216583252
1773231953212671700,5.802671630859375,-0.5841852426528931,-4.793191909790039,-15.33965015411377
1773231953228662500,5.81866259765625,-0.5554547905921936,-5.9735331535339355,-16.903064727783203
1773231953244654600,5.834654541015625,0.05746084079146385,-5.803544998168945,-17.62132453918457
1773231953260676000,5.850676025390625,0.4908113479614258,-4.747702121734619,-17.42739486694336
1773231953276666400,5.866666259765625,0.1388636976480484,-3.885789394378662,-17.08262825012207
1773231953292659700,5.88265966796875,-0.43335050344467163,-3.909731388092041,-16.934188842773438
1773231953308650800,5.898650634765625,-0.6057330369949341,-4.843470096588135,-16.70673942565918
1773231953320674800,5.9106748046875,-0.5817909836769104,-5.861005783081055,-16.40028190612793
1773231953332668000,5.92266796875,-0.4908113479614258,-6.833051681518555,-15.816096305847168
1773231953348659200,5.9386591796875,-0.2849099934101105,-7.903259754180908,-14.980520248413086
1773231953364678000,5.954677978515625,-0.2777273952960968,-8.482656478881836,-13.996502876281738
1773231953380669200,5.970669189453125,-0.4429273009300232,-8.365341186523438,-13.096282958984375
1773231953396660500,5.986660400390625,-0.8834604024887085,-8.01339340209961,-12.622231483459473
1773231953412654300,6.002654296875,-1.338358759880066,-7.8960771560668945,-11.918335914611816
1773231953428674300,6.01867431640625,-1.1659762859344482,-7.939172744750977,-10.87446403503418
1773231953444666400,6.034666259765625,-0.7038952708244324,-8.219294548034668,-9.751583099365234
1773231953460656600,6.05065673828125,-0.12689268589019775,-8.540117263793945,-8.60236644744873
1773231953476677000,6.066677001953125,0.2537853717803955,-8.47786808013916,-7.491456985473633
1773231953492669700,6.082669677734375,0.3974374830722809,-8.339004516601562,-6.560112476348877
1773231953508660200,6.09866015625,0.2346317619085312,-8.054094314575195,-5.940014362335205
1773231953524650200,6.114650146484375,-0.20350714027881622,-7.793126583099365,-5.384559631347656
1773231953540673000,6.130673095703125,-0.5554547905921936,-7.443572998046875,-5.008669853210449
1773231953556665600,6.14666552734375,-0.7733271718025208,-7.134721279144287,-4.592078685760498
1773231953572657700,6.16265771484375,-0.8930372595787048,-6.933608055114746,-4.247313976287842
1773231953588678100,6.17867822265625,-0.8810662031173706,-6.890512466430664,-3.8810009956359863
1773231953604668000,6.19466796875,-0.8259995579719543,-6.868964672088623,-3.450044631958008
1773231953620660200,6.21066015625,-0.912190854549408,-6.694188117980957,-3.0789434909820557
1773231953636651500,6.226651611328125,-1.0558429956436157,-6.658275127410889,-2.9520506858825684
1773231953652674000,6.242674072265625,-1.2425906658172607,-6.75883150100708,-3.2106244564056396
1773231953668664000,6.2586640625,-1.5394717454910278,-7.127538681030273,-3.665522813796997
1773231953684654800,6.27465478515625,-1.8195933103561401,-7.4555439949035645,-4.027047157287598
1773231953700676000,6.290676025390625,-2.0159177780151367,-7.668628215789795,-4.141968727111816
1773231953716669000,6.3066689453125,-2.0446481704711914,-7.850587368011475,-4.656722068786621
1773231953732660200,6.32266015625,-1.9847931861877441,-8.056488990783691,-5.906495571136475
1773231953748650800,6.338650634765625,-1.7764976024627686,-8.300697326660156,-6.981492042541504
1773231953764671000,6.3546708984375,-1.4844050407409668,-8.537723541259766,-7.94635534286499
1773231953780662000,6.370662109375,-1.278503656387329,-8.456320762634277,-8.449137687683105
1773231953796654000,6.386654052734375,-1.0606313943862915,-8.396465301513672,-9.014169692993164
1773231953812678100,6.40267822265625,-0.8164227604866028,-8.061277389526367,-9.720458984375
1773231953828665600,6.41866552734375,-0.7805097699165344,-7.762001991271973,-10.759542465209961
1773231953844658200,6.434658203125,-0.9241618514060974,-7.556100368499756,-11.556811332702637
1773231953860649500,6.4506494140625,-1.113303780555725,-7.51779317855835,-11.36048698425293
1773231953876671500,6.46667138671875,-1.094150185585022,-7.096413612365723,-10.319009780883789
1773231953892663600,6.48266357421875,-0.7757213711738586,-6.291962146759033,-9.138668060302734
1773231953908653000,6.498653076171875,-0.8379706144332886,-5.39174222946167,-8.432378768920898
1773231953924676400,6.51467626953125,-1.436521053314209,-4.76924991607666,-8.121131896972656
1773231953940665300,6.530665283203125,-2.2170307636260986,-4.400542736053467,-8.17380428314209
1773231953956656400,6.546656494140625,-2.9017724990844727,-4.37420654296875,-8.219294548034668
1773231953972650800,6.562650634765625,-3.066972494125366,-4.63517427444458,-8.022970199584961
1773231953988671700,6.578671630859375,-2.604891538619995,-5.023035049438477,-7.943961143493652
1773231954004662800,6.594662841796875,-1.9943699836730957,-5.336675643920898,-8.037335395812988
1773231954020651300,6.6106513671875,-1.525106430053711,-5.461174011230469,-8.382100105285645
1773231954032678700,6.6226787109375,-1.4460978507995605,-5.525817394256592,-8.753201484680176
1773231954044670700,6.634670654296875,-1.436521053314209,-5.571307182312012,-9.208099365234375
1773231954060662000,6.650662109375,-1.400607943534851,-5.535394191741943,-9.856928825378418
1773231954076653600,6.666653564453125,-1.2689268589019775,-5.47075080871582,-10.54406452178955
1773231954088677600,6.678677734375,-1.0845733880996704,-5.370194435119629,-10.960655212402344
1773231954104668200,6.694668212890625,-0.7972691655158997,-4.991910457611084,-11.310209274291992
1773231954116659700,6.70665966796875,-0.6224924325942993,-4.618414878845215,-11.688492774963379
1773231954132652300,6.72265234375,-0.5985504388809204,-4.333505153656006,-12.270283699035645
1773231954148674000,6.738674072265625,-0.6631938815116882,-4.278438568115234,-12.94066047668457
1773231954164665600,6.75466552734375,-0.5817909836769104,-4.448426723480225,-13.663708686828613
1773231954180654800,6.77065478515625,-0.38067805767059326,-4.659116744995117,-14.147337913513184
1773231954196646400,6.786646484375,-0.13168109953403473,-4.390965938568115,-14.168885231018066
1773231954212670700,6.802670654296875,-0.11252748221158981,-4.235342979431152,-14.487314224243164
1773231954228660500,6.818660400390625,-0.3280056416988373,-5.106832027435303,-15.749058723449707
1773231954244651000,6.834651123046875,-0.031124621629714966,-5.453991413116455,-16.850391387939453
1773231954260672300,6.85067236328125,0.5578489899635315,-4.941632270812988,-16.94376564025879
1773231954276664800,6.866664794921875,0.43335050344467163,-4.137180328369141,-16.476896286010742
1773231954292656600,6.88265673828125,-0.5195417404174805,-3.9264907836914062,-16.10100555419922
1773231954308647000,6.89864697265625,-1.192312479019165,-4.5825018882751465,-15.849615097045898
1773231954324668400,6.91466845703125,-1.115697979927063,-5.825092792510986,-15.52160930633545
1773231954340658400,6.930658447265625,-0.8379706144332886,-7.189787864685059,-14.987702369689941
1773231954356650800,6.946650634765625,-0.7661445140838623,-8.396465301513672,-14.693215370178223
1773231954372673800,6.962673828125,-0.768538773059845,-9.08838939666748,-14.09705924987793
1773231954388662300,6.978662353515625,-0.689530074596405,-8.949525833129883,-13.321338653564453
1773231954404656000,6.99465625,-0.7805097699165344,-8.523358345031738,-12.588712692260742
1773231954420646400,7.010646484375,-1.1300631761550903,-8.293514251708984,-12.057199478149414
1773231954436667100,7.026667236328125,-1.0630255937576294,-8.312667846679688,-11.228805541992188
1773231954452659500,7.042659423828125,-1.139639973640442,-8.578424453735352,-9.86889934539795
1773231954468651300,7.0586513671875,-0.6368576288223267,-8.798690795898438,-8.619126319885254
1773231954484671700,7.074671630859375,0.035913024097681046,-8.789113998413086,-7.778761386871338
1773231954500662800,7.090662841796875,0.08379705995321274,-8.556877136230469,-6.892906665802002
1773231954516652500,7.106652587890625,0.08858546614646912,-8.248024940490723,-6.2416839599609375
1773231954532646700,7.122646728515625,0.1173158809542656,-8.2312650680542,-5.686229228973389
1773231954548667400,7.13866748046875,0.11013327538967133,-8.056488990783691,-5.243301868438721
1773231954564657400,7.154657470703125,-0.05027823522686958,-7.68538761138916,-4.819528102874756
1773231954580648000,7.17064794921875,-0.3519476354122162,-7.398083209991455,-4.54419469833374
1773231954596669200,7.186669189453125,-0.6248866319656372,-7.129932880401611,-4.177882194519043
1773231954608662500,7.19866259765625,-0.6991068720817566,-6.979097843170166,-3.8786067962646484
1773231954620657200,7.2106572265625,-0.7254431247711182,-6.878541469573975,-3.5936968326568604
1773231954636648700,7.226648681640625,-0.6991068720817566,-6.955155849456787,-3.620033025741577
1773231954652672500,7.242672607421875,-0.7829039692878723,-7.364564418792725,-3.928884983062744
1773231954668661800,7.258661865234375,-1.036689281463623,-7.783549785614014,-4.182670593261719
1773231954684654000,7.274654052734375,-1.4389152526855469,-7.994239330291748,-3.9839515686035156
1773231954700674300,7.29067431640625,-1.8411411046981812,-8.128314971923828,-3.713406801223755
1773231954716664600,7.30666455078125,-1.9584569931030273,-8.24084186553955,-3.7876269817352295
1773231954732658400,7.322658447265625,-1.6089035272598267,-8.303091049194336,-4.4077253341674805
1773231954748648000,7.33864794921875,-1.1324573755264282,-8.164227485656738,-5.231330871582031
1773231954764668700,7.354668701171875,-0.7374141216278076,-8.075642585754395,-6.399701118469238
1773231954780660200,7.37066015625,-0.4165911078453064,-7.5968017578125,-7.189787864685059
1773231954796652500,7.386652587890625,-0.3423708379268646,-7.489062786102295,-8.520963668823242
1773231954812674000,7.402674072265625,-0.6847416758537292,-7.424419403076172,-9.847352027893066
1773231954828665000,7.4186650390625,-1.0893617868423462,-7.493851184844971,-10.505757331848145
1773231954844656600,7.43465673828125,-1.4700398445129395,-7.898471355438232,-10.702081680297852
1773231954860646100,7.450646240234375,-1.6352397203445435,-8.152256965637207,-10.445901870727539
1773231954876669400,7.46666943359375,-1.6711528301239014,-7.922413349151611,-10.02452278137207
1773231954892661500,7.48266162109375,-1.644816517829895,-7.115567684173584,-9.08838939666748
1773231954908652300,7.49865234375,-1.5322890281677246,-5.940014362335205,-8.470685958862305
1773231954924672300,7.51467236328125,-1.50355863571167,-4.917690277099609,-8.492233276367188
1773231954936666600,7.52666650390625,-1.6519991159439087,-4.4292731285095215,-8.722076416015625
1773231954948658200,7.538658203125,-1.9632453918457031,-4.314351558685303,-8.678980827331543
1773231954960654000,7.550654052734375,-2.212242364883423,-4.441244125366211,-8.418013572692871
1773231954972647700,7.562647705078125,-2.27209734916687,-4.711789131164551,-8.161833763122559
1773231954988668400,7.57866845703125,-2.1284453868865967,-5.147533416748047,-7.82185697555542
1773231955004658700,7.59465869140625,-1.9632453918457031,-5.614402770996094,-7.5968017578125
1773231955020651000,7.610651123046875,-1.8483237028121948,-5.920860767364502,-7.716512203216553
1773231955036671000,7.6266708984375,-1.778891921043396,-6.088454723358154,-8.219294548034668
1773231955052664600,7.64266455078125,-1.6112977266311646,-5.947196960449219,-9.078812599182129
1773231955068653800,7.65865380859375,-1.4460978507995605,-5.868188381195068,-10.077195167541504
1773231955084645600,7.674645751953125,-1.2330138683319092,-5.626373767852783,-10.951078414916992
1773231955100667600,7.690667724609375,-0.993593692779541,-5.252878665924072,-11.456254959106445
1773231955116657700,7.70665771484375,-0.993593692779541,-4.817133903503418,-11.669339179992676
1773231955132652000,7.722652099609375,-1.113303780555725,-4.620809078216553,-12.248735427856445
1773231955148672800,7.7386728515625,-1.192312479019165,-4.594472885131836,-13.220781326293945
1773231955164661500,7.75466162109375,-0.9433154463768005,-4.596867084503174,-13.91270637512207
1773231955180652800,7.77065283203125,-0.5530605912208557,-4.774038314819336,-14.437036514282227
1773231955196645400,7.786645263671875,-0.30885201692581177,-4.644751071929932,-14.698003768920898
1773231955212667100,7.802667236328125,-0.4189853072166443,-4.529829502105713,-14.889540672302246
1773231955228658200,7.818658203125,-0.8307880163192749,-5.178658485412598,-16.09382438659668
1773231955244649500,7.8346494140625,-0.811634361743927,-5.523423194885254,-16.986860275268555
1773231955260669700,7.850669677734375,-0.3663128614425659,-4.932055473327637,-17.207128524780273
1773231955276662800,7.866662841796875,-0.7996633648872375,-4.189853191375732,-16.88630485534668
1773231955292654600,7.882654541015625,-1.8387469053268433,-4.0533833503723145,-16.610971450805664
1773231955308642300,7.898642333984375,-2.097320795059204,-4.7189717292785645,-16.503232955932617
1773231955324666000,7.914666015625,-1.742978811264038,-5.975927352905273,-16.249446868896484
1773231955340657200,7.9306572265625,-1.3623007535934448,-7.3885064125061035,-15.794548988342285
1773231955356647200,7.946647216796875,-0.8786720037460327,-8.702922821044922,-15.105018615722656
1773231955372669000,7.9626689453125,-0.45489832758903503,-9.5624418258667,-14.118607521057129
1773231955388661800,7.978661865234375,-0.06464344263076782,-9.461885452270508,-12.768278121948242
1773231955404652800,7.99465283203125,0.12689268589019775,-8.949525833129883,-11.559206008911133
1773231955420674000,8.010674072265624,0.15322890877723694,-8.537723541259766,-10.524910926818848
1773231955436663800,8.026663818359374,0.2849099934101105,-8.336610794067383,-9.713275909423828
1773231955452658200,8.042658203125,0.524330198764801,-8.382100105285645,-9.095572471618652
1773231955468649200,8.058649169921875,0.629675030708313,-8.501810073852539,-8.53532886505127
1773231955480672800,8.0706728515625,0.44771572947502136,-8.47547435760498,-7.972691535949707
1773231955492664600,8.08266455078125,0.35673606395721436,-8.291120529174805,-7.328651428222656
1773231955508654600,8.098654541015625,0.14844051003456116,-8.128314971923828,-6.763619899749756
1773231955524648000,8.11464794921875,-0.031124621629714966,-8.092401504516602,-6.301538944244385
1773231955540668200,8.130668212890624,-0.06464344263076782,-8.130708694458008,-5.8657941818237305
1773231955556660000,8.146659912109374,-0.033518824726343155,-8.054094314575195,-5.351040840148926
1773231955572652800,8.16265283203125,-0.08619125932455063,-7.850587368011475,-4.908113479614258
1773231955588642300,8.178642333984374,-0.30885201692581177,-7.599195957183838,-4.558559894561768
1773231955604665000,8.1946650390625,-0.5434837937355042,-7.328651428222656,-4.031835556030273
1773231955620655600,8.210655517578125,-0.6823474764823914,-7.187393665313721,-3.7636849880218506
1773231955636646400,8.226646484375,-0.7805097699165344,-7.175422668457031,-3.7038300037384033
1773231955652666600,8.24266650390625,-0.8451532125473022,-7.398083209991455,-3.687070608139038
1773231955668658200,8.258658203125,-0.8810662031173706,-7.568071365356445,-3.6846764087677
1773231955684649700,8.274649658203124,-1.0965443849563599,-7.706935405731201,-3.6583402156829834
1773231955700672300,8.29067236328125,-1.4173674583435059,-7.673416614532471,-3.4380736351013184
1773231955716663600,8.30666357421875,-1.4772224426269531,-7.903259754180908,-3.732560396194458
1773231955732655000,8.322655029296875,-1.0773907899856567,-8.324639320373535,-4.400542736053467
1773231955748644600,8.33864453125,-0.5817909836769104,-8.42040729522705,-5.04218864440918
1773231955764667100,8.354667236328124,-0.629675030708313,-8.494627952575684,-6.026205539703369
1773231955780659200,8.3706591796875,-0.8451532125473022,-8.358158111572266,-6.72531270980835
1773231955796649000,8.38664892578125,-0.8547300100326538,-7.996633529663086,-7.682993412017822
1773231955812672000,8.402672119140625,-0.912190854549408,-7.515398979187012,-9.150638580322266
1773231955828662800,8.418662841796875,-1.0007762908935547,-7.187393665313721,-10.345345497131348
1773231955844654000,8.434654052734375,-1.2330138683319092,-7.232883453369141,-11.034875869750977
1773231955860643000,8.45064306640625,-1.460463047027588,-7.5417351722717285,-10.934319496154785
1773231955876666000,8.466666015625,-1.4437036514282227,-7.752425193786621,-10.445901870727539
1773231955892658200,8.482658203125,-1.213860273361206,-7.393294811248779,-9.66299819946289
1773231955908648700,8.498648681640624,-0.9696516990661621,-6.607996463775635,-9.069235801696777
1773231955924670000,8.514669921875,-0.8523358106613159,-5.676652431488037,-9.028534889221191
1773231955940660700,8.53066064453125,-0.9720458984375,-5.027823448181152,-9.263166427612305
1773231955956653300,8.5466533203125,-1.1492167711257935,-4.78122091293335,-9.425971984863281
1773231955972646000,8.56264599609375,-1.4245500564575195,-4.946420669555664,-9.315838813781738
1773231955988666400,8.578666259765624,-1.4963760375976562,-5.2049946784973145,-8.827422142028809
1773231956004657400,8.594657470703124,-1.2689268589019775,-5.341464042663574,-8.468291282653809
1773231956020648400,8.6106484375,-1.0247182846069336,-5.3342814445495605,-8.391676902770996
1773231956036670000,8.626669921875,-0.9050082564353943,-5.264849662780762,-8.638279914855957
1773231956052661800,8.642661865234375,-0.8619126081466675,-5.193023681640625,-9.074024200439453
1773231956068653800,8.65865380859375,-1.0079588890075684,-5.018246650695801,-9.437943458557129
1773231956084651500,8.674651611328125,-0.9959878921508789,-4.941632270812988,-9.655815124511719
1773231956100664000,8.6906640625,-1.0319008827209473,-4.9368438720703125,-9.976638793945312
1773231956116657000,8.706656982421874,-1.1827356815338135,-4.680664539337158,-10.273519515991211
1773231956132649000,8.72264892578125,-1.4077905416488647,-4.668693542480469,-10.860098838806152
1773231956148670700,8.738670654296875,-1.6974890232086182,-4.738125324249268,-11.568782806396484
1773231956164660700,8.75466064453125,-1.8124107122421265,-4.975151062011719,-12.4785795211792
1773231956180651000,8.770651123046875,-1.6519991159439087,-5.197812080383301,-13.505691528320312
1773231956196642600,8.786642578125,-1.3431471586227417,-4.93923807144165,-14.233529090881348
1773231956212665000,8.8026650390625,-1.216254472732544,-4.144362926483154,-14.568717002868652
1773231956228656000,8.81865625,-1.2880805730819702,-4.331110954284668,-15.670049667358398
1773231956244647400,8.8346474609375,-1.072602391242981,-5.123591423034668,-17.049110412597656
1773231956260666600,8.85066650390625,-0.16759411990642548,-5.169081687927246,-17.472883224487305
1773231956276660000,8.866659912109375,0.629675030708313,-4.6040496826171875,-16.81926727294922
1773231956292651500,8.882651611328125,0.42616790533065796,-3.9815573692321777,-16.024391174316406
1773231956308643300,8.898643310546875,-0.24660277366638184,-4.02465295791626,-15.705963134765625
1773231956324664000,8.9146640625,-0.5171475410461426,-4.6950297355651855,-15.547945976257324
1773231956340654600,8.930654541015626,-0.5315127968788147,-5.949591159820557,-15.346833229064941
1773231956356644600,8.94664453125,-0.5099649429321289,-7.383718013763428,-14.800954818725586
1773231956372668700,8.962668701171875,-0.6033388376235962,-8.597578048706055,-14.27662467956543
1773231956388658200,8.978658203125,-0.6177040338516235,-9.23682975769043,-13.670891761779785
1773231956404648700,8.994648681640625,-0.48602294921875,-9.090784072875977,-12.804190635681152
1773231956420641500,9.0106416015625,-0.3471592366695404,-8.554482460021973,-11.987768173217773
1773231956436660700,9.02666064453125,-0.31842881441116333,-8.128314971923828,-11.022904396057129
1773231956452655000,9.042655029296874,0.002394201699644327,-7.987056732177734,-10.014945983886719
1773231956468644000,9.05864404296875,0.3878606855869293,-8.04691219329834,-9.205705642700195
1773231956484665900,9.074665771484375,0.6560112833976746,-8.286332130432129,-8.336610794067383
1773231956496662000,9.086662109375,0.7637503147125244,-8.422801971435547,-7.91283655166626
1773231956512653000,9.102653076171874,0.7541735172271729,-8.49941635131836,-7.450755596160889
1773231956524643600,9.1146435546875,0.5626373887062073,-8.446743965148926,-6.938396453857422
1773231956536669000,9.1266689453125,0.304063618183136,-8.367734909057617,-6.543353080749512
1773231956548662300,9.138662353515626,0.07661445438861847,-8.255207061767578,-6.236895561218262
1773231956564652000,9.154652099609375,-0.12689268589019775,-8.238448143005371,-5.796362400054932
1773231956580643800,9.170643798828126,-0.24899697303771973,-8.145073890686035,-5.427655220031738
1773231956596664800,9.186664794921874,-0.35673606395721436,-7.922413349151611,-5.082890033721924
1773231956612658400,9.202658447265625,-0.47405192255973816,-7.757213592529297,-4.843470096588135
1773231956624652000,9.214652099609374,-0.629675030708313,-7.5201873779296875,-4.558559894561768
1773231956636644900,9.226644775390625,-0.8451532125473022,-7.280767440795898,-4.230554580688477
1773231956652667000,9.2426669921875,-1.0606313943862915,-7.319074630737305,-4.146757125854492
1773231956668657000,9.258656982421876,-1.091755986213684,-7.465120792388916,-4.060565948486328
1773231956684648400,9.2746484375,-1.1899182796478271,-7.644686222076416,-3.912125587463379
1773231956700668400,9.29066845703125,-1.2689268589019775,-7.802703380584717,-3.670311212539673
1773231956716661200,9.3066611328125,-1.3048399686813354,-7.82185697555542,-3.4955344200134277
1773231956732652800,9.32265283203125,-1.3287819623947144,-7.802703380584717,-3.8283286094665527
1773231956748644000,9.33864404296875,-1.0893617868423462,-8.027758598327637,-4.6950297355651855
1773231956764663300,9.354663330078125,-0.8092401623725891,-7.979874134063721,-5.188235282897949
1773231956780657000,9.370656982421876,-0.8403648138046265,-8.027758598327637,-5.770026206970215
1773231956796646100,9.386646240234375,-0.8403648138046265,-7.833827972412109,-6.502651691436768
1773231956812668000,9.40266796875,-0.9169792532920837,-7.709329605102539,-7.599195957183838
1773231956828661500,9.41866162109375,-1.1348515748977661,-7.575253963470459,-8.621520042419434
1773231956844652500,9.434652587890625,-1.3431471586227417,-7.539340972900391,-9.368511199951172
1773231956860642600,9.450642578125,-1.5394717454910278,-7.675810813903809,-9.80904483795166
1773231956876665000,9.4666650390625,-1.6065093278884888,-7.814674377441406,-9.895236015319824
1773231956892656600,9.48265673828125,-1.4867992401123047,-7.759607791900635,-9.502586364746094
1773231956908646000,9.49864599609375,-1.2066776752471924,-7.194576263427734,-8.810662269592285
1773231956924667000,9.5146669921875,-0.9888052940368652,-6.423643112182617,-8.367734909057617
1773231956940659000,9.530658935546874,-0.9002198576927185,-5.683835029602051,-8.327033042907715
1773231956956651300,9.5466513671875,-1.0654197931289673,-5.305551052093506,-8.667010307312012
1773231956972640500,9.562640625,-1.3910311460494995,-5.329493045806885,-8.901641845703125
1773231956988661800,9.578661865234375,-1.5969325304031372,-5.4444146156311035,-8.78432559967041
1773231957004654300,9.594654296875,-1.558625340461731,-5.825092792510986,-8.7268648147583
1773231957024644600,9.61464453125,-1.3838485479354858,-6.13633918762207,-8.760383605957031
1773231957036666600,9.62666650390625,-1.4197616577148438,-6.14831018447876,-9.090784072875977
1773231957052660500,9.642660400390625,-1.4748282432556152,-6.0597243309021,-9.718064308166504
1773231957068650000,9.65864990234375,-1.460463047027588,-5.813121795654297,-10.261548042297363
1773231957084641800,9.674641845703125,-1.4101848602294922,-5.652710437774658,-10.807426452636719
1773231957100662300,9.690662353515625,-1.278503656387329,-5.446808815002441,-11.133037567138672
1773231957116653300,9.7066533203125,-0.9959878921508789,-5.137956619262695,-11.291055679321289
1773231957132644600,9.72264453125,-0.706289529800415,-4.745307922363281,-11.312602996826172
1773231957148667000,9.7386669921875,-0.6033388376235962,-4.730942726135254,-11.678915977478027
1773231957164659500,9.754659423828125,-0.5363011956214905,-4.912901878356934,-12.196063041687012
1773231957180647700,9.770647705078124,-0.28969839215278625,-5.078101634979248,-12.78503704071045
1773231957196638700,9.786638671875,-0.07422025501728058,-5.279214859008789,-13.24472427368164
1773231957212662300,9.802662353515625,0.05027823522686958,-5.080495834350586,-13.515268325805664
1773231957228651500,9.818651611328125,-0.08140286058187485,-5.293580055236816,-14.391546249389648
1773231957244643000,9.83464306640625,-0.3974374830722809,-5.9735331535339355,-15.895105361938477
1773231957260666600,9.85066650390625,-0.014365210197865963,-5.74129581451416,-16.740259170532227
1773231957276658700,9.86665869140625,0.6967126727104187,-4.6255974769592285,-17.096994400024414
1773231957292648000,9.88264794921875,0.47405192255973816,-3.5434184074401855,-17.38190460205078
1773231957308638700,9.898638671875,-0.3663128614425659,-3.4548330307006836,-17.79849624633789
1773231957324661500,9.91466162109375,-0.6488286852836609,-4.314351558685303,-17.539920806884766
1773231957340652000,9.930652099609375,-0.4118026793003082,-5.770026206970215,-16.71870994567871
1773231957356643600,9.9466435546875,0.17717093229293823,-7.534552574157715,-15.682021141052246
1773231957372665000,9.9626650390625,0.2968810200691223,-8.734047889709473,-14.767436027526855
1773231957388654600,9.978654541015626,-0.0454898327589035,-9.272743225097656,-14.020444869995117
1773231957404646400,9.994646484375,-0.4165911078453064,-9.23682975769043,-13.510479927062988
1773231957420637400,10.010637451171876,-0.8906430602073669,-8.99740982055664,-13.199234008789062
1773231957436660000,10.026659912109375,-1.2976573705673218,-8.927978515625,-12.576741218566895
1773231957452653000,10.042653076171876,-1.0893617868423462,-9.289502143859863,-11.578359603881836
1773231957468641000,10.05864111328125,-0.6943184733390808,-9.612719535827637,-9.543288230895996
1773231957484664600,10.07466455078125,0.26575639843940735,-9.931148529052734,-8.640673637390137
1773231957500654600,10.090654541015626,0.5123591423034668,-9.919178009033203,-7.627926826477051
1773231957516648000,10.10664794921875,0.6009446382522583,-9.583989143371582,-6.845022678375244
1773231957532640000,10.122639892578125,0.4644751250743866,-9.078812599182129,-6.121973514556885
1773231957548658700,10.13865869140625,0.019153613597154617,-8.796297073364258,-5.724536418914795
1773231957564652000,10.154652099609375,-0.304063618183136,-8.47547435760498,-5.434837818145752
1773231957580642600,10.170642578125,-0.4357447028160095,-8.236053466796875,-4.994304656982422
1773231957596664000,10.1866640625,-0.47405192255973816,-7.965508937835693,-4.55616569519043
1773231957612656400,10.202656494140625,-0.4213795065879822,-7.73087739944458,-4.125209331512451
1773231957624650200,10.214650146484376,-0.45010992884635925,-7.568071365356445,-3.756502389907837
1773231957636641300,10.226641357421874,-0.5339069962501526,-7.467514991760254,-3.490746021270752
1773231957652664300,10.242664306640625,-0.6751648783683777,-7.433996200561523,-3.31118106842041
1773231957668654600,10.258654541015625,-0.8547300100326538,-7.55131196975708,-3.114856481552124
1773231957684646000,10.27464599609375,-0.9361328482627869,-7.735665798187256,-2.9927520751953125
1773231957700666400,10.290666259765626,-1.1324573755264282,-7.965508937835693,-3.1244332790374756
1773231957716660000,10.306659912109374,-1.479616641998291,-7.953537940979004,-3.5889084339141846
1773231957732649200,10.322649169921876,-1.5538369417190552,-7.977479934692383,-4.235342979431152
1773231957748641300,10.338641357421874,-1.1875240802764893,-8.374917984008789,-4.977545261383057
1773231957764663000,10.3546630859375,-0.7613561153411865,-8.549694061279297,-5.413290023803711
1773231957780653800,10.37065380859375,-0.6775590777397156,-8.851364135742188,-6.054935932159424
1773231957796643800,10.386643798828125,-0.7972691655158997,-8.767566680908203,-6.672640323638916
1773231957812668400,10.40266845703125,-0.8690952062606812,-8.518569946289062,-7.587224960327148
1773231957828656600,10.41865673828125,-0.8020575642585754,-8.128314971923828,-8.609549522399902
1773231957844649000,10.43464892578125,-0.545877993106842,-7.843404769897461,-9.59835433959961
1773231957860641000,10.45064111328125,-0.35673606395721436,-7.706935405731201,-10.35252857208252
1773231957876661500,10.46666162109375,-0.4118026793003082,-7.750030994415283,-10.481815338134766
1773231957892653800,10.48265380859375,-0.6057330369949341,-7.726089000701904,-10.02691650390625
1773231957908644000,10.49864404296875,-0.811634361743927,-7.343016624450684,-9.23682975769043
1773231957924665000,10.5146650390625,-0.9097966551780701,-6.691793918609619,-8.578424453735352
1773231957936658200,10.526658203125,-0.9696516990661621,-6.138733386993408,-8.360552787780762
1773231957948652000,10.538652099609376,-1.0845733880996704,-5.731719017028809,-8.585607528686523
1773231957964643600,10.5546435546875,-1.2713210582733154,-5.396530628204346,-9.030928611755371
1773231957980665900,10.570665771484375,-1.623268723487854,-5.3797712326049805,-9.375694274902344
1773231957996657400,10.586657470703125,-2.032677173614502,-5.578489780426025,-9.334992408752441
1773231958012648700,10.602648681640625,-1.9273324012756348,-5.762843608856201,-8.99740982055664
1773231958028640500,10.618640625,-1.45806884765625,-5.904101371765137,-9.045293807983398
1773231958044660700,10.63466064453125,-1.1683704853057861,-6.007051944732666,-9.615114212036133
1773231958060651500,10.650651611328126,-1.0319008827209473,-5.9088897705078125,-10.333374977111816
1773231958076641800,10.666641845703126,-1.0965443849563599,-5.614402770996094,-10.852916717529297
1773231958092677600,10.682677734375,-1.280897855758667,-5.317522048950195,-11.231200218200684
1773231958108656000,10.69865625,-1.2330138683319092,-5.006275653839111,-11.51850414276123
1773231958124647000,10.71464697265625,-1.1252747774124146,-4.630385875701904,-11.690886497497559
1773231958140669400,10.73066943359375,-1.0773907899856567,-4.513070106506348,-11.88002872467041
1773231958156659500,10.746659423828126,-0.933738648891449,-4.623203277587891,-12.145785331726074
1773231958172650200,10.762650146484376,-0.6751648783683777,-4.747702121734619,-12.708422660827637
1773231958188640800,10.778640869140625,-0.3974374830722809,-4.802768707275391,-13.206416130065918
1773231958204664000,10.7946640625,-0.15322890877723694,-4.656722068786621,-13.52005672454834
1773231958220654000,10.810654052734375,-0.17477671802043915,-4.14915132522583,-13.579912185668945
1773231958236646000,10.82664599609375,-0.38067805767059326,-4.63517427444458,-14.496891021728516
1773231958252669000,10.8426689453125,-0.3974374830722809,-5.477933406829834,-15.794548988342285
1773231958268659000,10.858658935546876,0.07900865375995636,-5.415684223175049,-16.373945236206055
1773231958284650500,10.874650390625,0.35673606395721436,-4.666299343109131,-16.77377700805664
1773231958300642000,10.89064208984375,-0.2513911724090576,-3.928884983062744,-17.094600677490234
1773231958316662500,10.90666259765625,-0.8571242094039917,-3.9624037742614746,-17.214309692382812
1773231958332656000,10.92265625,-0.7876923680305481,-4.910507678985596,-16.879121780395508
1773231958348644400,10.938644287109375,-0.47884035110473633,-6.514622688293457,-16.237476348876953
1773231958364635400,10.954635498046875,0.10773907601833344,-8.08282470703125,-15.320496559143066
1773231958380658400,10.970658447265626,0.45489832758903503,-9.08838939666748,-14.4226713180542
1773231958396649500,10.9866494140625,0.5530605912208557,-9.30386734008789,-13.287819862365723
1773231958412640300,11.00264013671875,0.40940847992897034,-8.932766914367676,-12.287043571472168
1773231958428660700,11.01866064453125,0.2082955539226532,-8.461109161376953,-11.434707641601562
1773231958444655000,11.034655029296875,0.2753331959247589,-8.281543731689453,-10.498574256896973
1773231958460644000,11.05064404296875,0.45250412821769714,-8.219294548034668,-9.691728591918945
1773231958476635100,11.06663525390625,0.5985504388809204,-8.307879447937012,-8.774748802185059
1773231958492658700,11.08265869140625,0.5793967843055725,-8.29590892791748,-7.879317760467529
1773231958508647700,11.098647705078125,0.4884171485900879,-8.233659744262695,-7.084442615509033
1773231958524640800,11.114640869140626,0.35434186458587646,-8.154650688171387,-6.581660270690918
1773231958540660700,11.13066064453125,0.12210428714752197,-7.972691535949707,-6.303933143615723
1773231958556654000,11.146654052734375,-0.2322375625371933,-7.773972988128662,-6.064512729644775
1773231958572646000,11.16264599609375,-0.5339069962501526,-7.647080421447754,-5.884947776794434
1773231958588664000,11.1786640625,-0.7015010714530945,-7.63989782333374,-5.621585369110107
1773231958604654800,11.19465478515625,-0.8355764150619507,-7.750030994415283,-5.367800235748291
1773231958620647400,11.2106474609375,-0.8954314589500427,-7.7213006019592285,-5.0014872550964355
1773231958636638200,11.22663818359375,-0.9888052940368652,-7.757213592529297,-4.599261283874512
1773231958652659700,11.24265966796875,-1.0773907899856567,-7.7213006019592285,-4.405331134796143
1773231958668651000,11.258651123046874,-1.2856862545013428,-7.833827972412109,-4.4532151222229
1773231958684643000,11.27464306640625,-1.3742717504501343,-8.08282470703125,-4.481945514678955
1773231958700665000,11.2906650390625,-1.2617442607879639,-8.123526573181152,-4.5154643058776855
1773231958716655400,11.3066552734375,-0.8571242094039917,-8.11634349822998,-4.309563159942627
1773231958732648200,11.322648193359376,-0.21547815203666687,-8.027758598327637,-4.244919776916504
1773231958748637400,11.338637451171875,0.23702596127986908,-8.20492935180664,-5.039794445037842
1773231958764660700,11.35466064453125,0.2801215946674347,-8.169015884399414,-5.57370138168335
1773231958780650500,11.370650390625,-0.05746084079146385,-7.903259754180908,-5.961562156677246
1773231958796641500,11.3866416015625,-0.5410895943641663,-7.515398979187012,-6.31829833984375
1773231958812663600,11.40266357421875,-0.6823474764823914,-7.137115478515625,-6.876147270202637
1773231958828656600,11.41865673828125,-0.689530074596405,-6.995857238769531,-7.826645374298096
1773231958844645000,11.43464501953125,-0.7182605266571045,-6.94079065322876,-8.62391471862793
1773231958860637200,11.45063720703125,-0.9217676520347595,-7.146692276000977,-9.368511199951172
1773231958876658200,11.466658203125,-1.2761094570159912,-7.582436561584473,-9.782708168029785
1773231958892650200,11.482650146484374,-1.6424223184585571,-7.740454196929932,-9.548076629638672
1773231958908640300,11.49864013671875,-1.7597382068634033,-7.311892032623291,-8.700529098510742
1773231958924662500,11.51466259765625,-1.5490485429763794,-6.445190906524658,-8.063671112060547
1773231958940654300,11.530654296875,-1.292868971824646,-5.525817394256592,-8.030152320861816
1773231958956644000,11.54664404296875,-1.2521674633026123,-4.831499099731445,-8.35097599029541
1773231958972638200,11.56263818359375,-1.525106430053711,-4.596867084503174,-8.681375503540039
1773231958988656600,11.57865673828125,-2.0183119773864746,-4.596867084503174,-8.846575736999512
1773231959004648200,11.594648193359374,-2.207453966140747,-4.771644115447998,-8.595184326171875
1773231959020641800,11.610641845703125,-2.188300371170044,-5.056553840637207,-8.343792915344238
1773231959036735500,11.626735595703124,-2.1475989818573,-5.173870086669922,-8.216899871826172
1773231959052730000,11.642730224609375,-2.205059766769409,-5.3797712326049805,-8.59997272491455
1773231959068719400,11.65871923828125,-2.03507137298584,-5.461174011230469,-9.172186851501465
1773231959084711200,11.674711181640625,-1.8124107122421265,-5.288791656494141,-9.945513725280762
1773231959096736300,11.686736328125,-1.6759412288665771,-5.178658485412598,-10.414777755737305
1773231959112725800,11.702725830078125,-1.556231141090393,-4.948814868927002,-10.81700325012207
1773231959124718800,11.71471875,-1.5466543436050415,-4.812345504760742,-11.137825965881348
1773231959140711400,11.73071142578125,-1.6950948238372803,-4.752490520477295,-11.671732902526855
1773231959156732400,11.746732421875,-1.7381904125213623,-4.867412090301514,-12.310985565185547
1773231959168725000,11.75872509765625,-1.6065093278884888,-5.035006046295166,-12.892776489257812
1773231959184718300,11.77471826171875,-1.3670891523361206,-5.197812080383301,-13.725957870483398
1773231959196708600,11.78670849609375,-1.2090718746185303,-5.058948040008545,-14.348450660705566
1773231959212732400,11.802732421875,-1.1180921792984009,-4.632780075073242,-14.867992401123047
1773231959228722400,11.818722412109375,-1.2449848651885986,-4.067748546600342,-15.195998191833496
1773231959244714000,11.8347138671875,-1.4197616577148438,-4.496310710906982,-16.17522621154785
1773231959260734700,11.850734619140624,-1.0247182846069336,-5.193023681640625,-16.972496032714844
1773231959276726000,11.86672607421875,-0.004788403399288654,-5.099649429321289,-17.07544708251953
1773231959292719000,11.882718994140625,0.4165911078453064,-4.189853191375732,-16.546327590942383
1773231959308710700,11.898710693359375,-0.1843535304069519,-3.1699230670928955,-16.10579490661621
1773231959324731000,11.91473095703125,-0.8643068075180054,-3.2130186557769775,-15.933412551879883
1773231959340722200,11.93072216796875,-0.9217676520347595,-4.127603530883789,-15.61019515991211
1773231959356714500,11.946714599609376,-0.5770025849342346,-5.774814605712891,-15.19120979309082
1773231959372736000,11.962736083984375,-0.31603461503982544,-7.328651428222656,-14.341268539428711
1773231959388725000,11.97872509765625,-0.31124621629714966,-8.56645393371582,-13.752294540405273
1773231959404717800,11.9947177734375,-0.2992752194404602,-8.865729331970215,-13.127408027648926
1773231959420739000,12.010739013671875,-0.3232172429561615,-8.42040729522705,-12.38759994506836
1773231959436731400,12.0267314453125,-0.706289529800415,-7.876923561096191,-11.994950294494629
1773231959452722700,12.04272265625,-0.9265560507774353,-7.532158374786377,-11.288661003112793
1773231959468712400,12.05871240234375,-0.7422025203704834,-7.47230339050293,-10.41956615447998
1773231959484736500,12.074736572265625,-0.4141969084739685,-7.740454196929932,-9.732429504394531
1773231959500725000,12.09072509765625,0.07422025501728058,-8.118738174438477,-9.282320022583008
1773231959516717300,12.10671728515625,0.2298433631658554,-8.293514251708984,-8.597578048706055
1773231959532709600,12.122709716796875,0.1412578970193863,-8.322244644165039,-8.238448143005371
1773231959548731600,12.138731689453126,-0.031124621629714966,-8.44434928894043,-7.8098859786987305
1773231959564720600,12.154720703125,-0.09576806426048279,-8.628703117370605,-7.161057472229004
1773231959580711400,12.17071142578125,0.0071826050989329815,-8.738836288452148,-6.4164605140686035
1773231959596735500,12.186735595703125,0.07422025501728058,-8.564059257507324,-5.6910176277160645
1773231959612726800,12.202726806640625,0.004788403399288654,-8.259995460510254,-4.972756862640381
1773231959628717800,12.2187177734375,-0.13168109953403473,-7.826645374298096,-4.371812343597412
1773231959644738800,12.23473876953125,-0.4381389021873474,-7.400477409362793,-4.077325344085693
1773231959660731000,12.25073095703125,-0.7829039692878723,-7.295132637023926,-3.825934410095215
1773231959676719400,12.26671923828125,-0.8523358106613159,-7.352593421936035,-3.5266590118408203
1773231959692713200,12.282713134765626,-0.7445967197418213,-7.603984832763672,-3.090914487838745
1773231959708733000,12.29873291015625,-0.7015010714530945,-7.738059997558594,-2.7509377002716064
1773231959724724000,12.314723876953124,-0.6584054827690125,-7.833827972412109,-2.719813108444214
1773231959740714800,12.33071484375,-0.5339069962501526,-7.908048152923584,-3.045424461364746
1773231959756738300,12.34673828125,-0.6320692300796509,-8.111555099487305,-3.93367338180542
1773231959772730400,12.36273046875,-1.036689281463623,-8.087613105773926,-4.659116744995117
1773231959788720600,12.378720703125,-1.3431471586227417,-8.063671112060547,-5.56173038482666
1773231959804711200,12.394711181640625,-1.522712230682373,-7.6351094245910645,-6.6391215324401855
1773231959820733700,12.410733642578125,-1.7597382068634033,-7.3238630294799805,-8.212111473083496
1773231959836723200,12.42672314453125,-2.1739351749420166,-7.175422668457031,-9.639056205749512
1773231959852716300,12.44271630859375,-2.561795711517334,-7.307103633880615,-10.402806282043457
1773231959868737800,12.45873779296875,-2.868253707885742,-7.601590633392334,-10.630255699157715
1773231959884729900,12.474729736328126,-2.913743495941162,-8.020575523376465,-10.407594680786133
1773231959900720600,12.490720703125,-2.4372973442077637,-7.9631147384643555,-9.615114212036133
1773231959916711200,12.506711181640625,-1.6208745241165161,-7.240066051483154,-8.686163902282715
1773231959928735200,12.5187353515625,-1.1875240802764893,-6.402095317840576,-8.516175270080566
1773231959944727800,12.534727783203126,-0.9433154463768005,-5.224148273468018,-8.729259490966797
1773231959960719400,12.55071923828125,-1.015141487121582,-4.355052947998047,-8.89685344696045
1773231959972711700,12.562711669921875,-1.292868971824646,-4.0078935623168945,-9.119514465332031
1773231959988733000,12.57873291015625,-1.886630892753601,-4.285621166229248,-8.937555313110352
1773231960004722400,12.594722412109375,-2.2912509441375732,-4.994304656982422,-8.597578048706055
1773231960020715500,12.610715576171875,-2.2577321529388428,-5.396530628204346,-8.291120529174805
1773231960036735500,12.626735595703124,-2.33913516998291,-5.595249176025391,-8.542511940002441
1773231960048732000,12.63873193359375,-2.3918075561523438,-5.633556365966797,-8.920795440673828
1773231960060722400,12.650722412109374,-2.250549554824829,-5.698200225830078,-9.155426979064941
1773231960076714200,12.66671435546875,-1.7262194156646729,-5.889736175537109,-9.47146224975586
1773231960092737800,12.68273779296875,-0.9481038451194763,-5.966350555419922,-9.718064308166504
1773231960108698400,12.698698486328125,-0.33279404044151306,-5.872976779937744,-9.770736694335938
1773231960124717600,12.714717529296875,0.023942016065120697,-5.659893035888672,-10.096348762512207
1773231960140709000,12.730709228515625,0.2513911724090576,-5.39174222946167,-10.54406452178955
1773231960152735000,12.74273486328125,0.24420857429504395,-5.331887245178223,-10.982203483581543
1773231960164727000,12.75472705078125,0.1843535304069519,-5.394136428833008,-11.27190113067627
1773231960180717800,12.7707177734375,0.2513911724090576,-5.643133640289307,-11.494562149047852
1773231960196709000,12.786709228515624,0.4118026793003082,-5.698200225830078,-12.02846908569336
1773231960212733200,12.802733154296876,0.42616790533065796,-5.549759387969971,-12.6150484085083
1773231960228724200,12.81872412109375,0.5099649429321289,-4.982333660125732,-12.983756065368652
1773231960244713500,12.83471337890625,0.24420857429504395,-4.917690277099609,-13.843274116516113
1773231960260735000,12.85073486328125,-0.43335050344467163,-5.774814605712891,-15.638925552368164
1773231960276728000,12.86672802734375,-0.21547815203666687,-5.521028995513916,-16.936582565307617
1773231960292719400,12.88271923828125,-0.021547814831137657,-4.127603530883789,-17.592594146728516
1773231960308738800,12.89873876953125,-1.1180921792984009,-2.52109432220459,-18.057069778442383
1773231960324731400,12.9147314453125,-2.2409727573394775,-2.0231003761291504,-18.990808486938477
1773231960340154400,12.930154296875,-2.1499931812286377,-2.9520506858825684,-18.70829200744629
1773231960356712400,12.94671240234375,-0.8882488012313843,-4.738125324249268,-17.044321060180664
1773231960372735200,12.9627353515625,0.33758243918418884,-6.873753070831299,-15.172056198120117
1773231960388725000,12.97872509765625,0.8858546018600464,-8.358158111572266,-13.64455509185791
1773231960404716000,12.994716064453126,1.0079588890075684,-8.920795440673828,-12.502521514892578
1773231960420738600,13.010738525390625,0.9145850539207458,-8.595184326171875,-11.868058204650879
1773231960436731400,13.0267314453125,0.5291185975074768,-7.9176249504089355,-11.626243591308594
1773231960452723500,13.042723388671876,-0.17717093229293823,-7.42681360244751,-11.233593940734863
1773231960468713200,13.058713134765625,-0.3687070608139038,-7.376535415649414,-10.307038307189941
1773231960484735200,13.0747353515625,-0.1843535304069519,-7.644686222076416,-9.459490776062012
1773231960500725800,13.090725830078124,0.06703764945268631,-8.078036308288574,-8.291120529174805
1773231960516717800,13.1067177734375,0.5434837937355042,-8.142680168151855,-7.390900611877441
1773231960532739000,13.122739013671875,0.5051765441894531,-8.133103370666504,-6.9455790519714355
1773231960548730600,13.138730712890625,0.28730419278144836,-7.994239330291748,-6.588842868804932
1773231960564719400,13.15471923828125,0.22026655077934265,-8.044517517089844,-6.423643112182617
1773231960580712400,13.17071240234375,0.07182604819536209,-8.101978302001953,-6.045359134674072
1773231960596733400,13.1867333984375,-0.0071826050989329815,-8.075642585754395,-5.767632007598877
1773231960612727000,13.20272705078125,-0.05746084079146385,-7.99184513092041,-5.47075080871582
1773231960628717800,13.2187177734375,-0.2753331959247589,-7.850587368011475,-5.214571475982666
1773231960644737300,13.2347373046875,-0.47165772318840027,-7.668628215789795,-5.008669853210449
1773231960660728300,13.250728271484375,-0.706289529800415,-7.738059997558594,-5.193023681640625
1773231960676719600,13.2667197265625,-0.849941611289978,-7.939172744750977,-5.5329999923706055
1773231960692711000,13.2827109375,-0.9720458984375,-8.164227485656738,-5.652710437774658
1773231960708734500,13.298734375,-1.2401964664459229,-8.365341186523438,-5.932831764221191
1773231960724725000,13.31472509765625,-1.7070658206939697,-8.346187591552734,-5.904101371765137
1773231960740715300,13.33071533203125,-1.886630892753601,-8.360552787780762,-5.674258232116699
1773231960756737300,13.3467373046875,-1.6136919260025024,-8.451532363891602,-5.805939197540283
1773231960772729600,13.3627294921875,-1.3694833517074585,-8.585607528686523,-6.102819919586182
1773231960788719000,13.378718994140625,-1.2234370708465576,-8.324639320373535,-6.466738700866699
1773231960804711400,13.39471142578125,-1.1683704853057861,-8.039729118347168,-6.339846134185791
1773231960820732000,13.41073193359375,-1.0031704902648926,-7.450755596160889,-6.0597243309021
1773231960836724700,13.426724853515625,-1.0271124839782715,-6.782773494720459,-6.682217121124268
1773231960852717800,13.4427177734375,-1.3479355573654175,-6.2416839599609375,-7.769184589385986
1773231960868737300,13.4587373046875,-1.2713210582733154,-6.090848922729492,-8.47786808013916
1773231960884727800,13.474727783203125,-1.2234370708465576,-6.160281181335449,-8.875306129455566
1773231960900719000,13.490718994140625,-1.4652514457702637,-6.4380083084106445,-8.808267593383789
1773231960916712400,13.50671240234375,-1.678335428237915,-6.627150535583496,-8.212111473083496
1773231960932733400,13.5227333984375,-1.7956513166427612,-6.3973069190979,-7.299921035766602
1773231960948724500,13.538724365234375,-1.745373010635376,-5.66228723526001,-6.624756336212158
1773231960964715000,13.554715087890624,-1.6400281190872192,-4.774038314819336,-6.660669326782227
1773231960980737000,13.570737060546875,-1.8770540952682495,-4.338293552398682,-7.223306655883789
1773231960996727300,13.586727294921875,-2.3247697353363037,-4.20421838760376,-7.893682956695557
1773231961012721000,13.602720947265626,-2.612074136734009,-4.410119533538818,-8.20492935180664
1773231961028709400,13.61870947265625,-2.604891538619995,-4.903325080871582,-7.90086555480957
1773231961044731400,13.6347314453125,-2.1763293743133545,-5.212177276611328,-7.441178798675537
1773231961060723200,13.65072314453125,-1.802833914756775,-5.4228668212890625,-7.922413349151611
1773231961076713500,13.66671337890625,-1.5155296325683594,-5.410895824432373,-9.3828763961792
1773231961092737300,13.6827373046875,-1.4173674583435059,-5.310339450836182,-10.44350814819336
1773231961108727300,13.698727294921875,-1.436521053314209,-5.260061264038086,-11.006145477294922
1773231961124718000,13.714718017578125,-1.3670891523361206,-5.092466831207275,-11.195286750793457
1773231961140710400,13.73071044921875,-1.1109095811843872,-4.742913722991943,-11.475408554077148
1773231961156731000,13.74673095703125,-0.7637503147125244,-4.309563159942627,-12.035652160644531
1773231961172722000,13.762721923828124,-0.6057330369949341,-4.0533833503723145,-12.696451187133789
1773231961188713200,13.778713134765624,-0.5363011956214905,-4.129997730255127,-13.227964401245117
1773231961204735700,13.79473583984375,-0.28730419278144836,-4.216189384460449,-13.627796173095703
1773231961216728300,13.806728271484374,-0.10295066982507706,-4.122815132141113,-14.03959846496582
1773231961228724500,13.818724365234376,-0.08858546614646912,-3.845088005065918,-14.317326545715332
1773231961244714800,13.83471484375,-0.1843535304069519,-3.423708438873291,-14.79616641998291
1773231961260734500,13.850734375,-0.2849099934101105,-4.082113742828369,-15.909470558166504
1773231961276725800,13.866725830078124,0.17956513166427612,-4.896142482757568,-17.106571197509766
1773231961292718600,13.882718505859375,1.0055646896362305,-4.438849925994873,-17.264589309692383
1773231961308708600,13.89870849609375,1.158793568611145,-3.3039982318878174,-16.9581298828125
1773231961324731000,13.91473095703125,0.6368576288223267,-2.631227731704712,-17.116147994995117
1773231961340722000,13.930721923828125,0.38546648621559143,-2.801215887069702,-17.535133361816406
1773231961356714000,13.9467138671875,0.4405331015586853,-3.8091750144958496,-17.221492767333984
1773231961372736500,13.962736572265625,0.47644615173339844,-5.2696380615234375,-15.993267059326172
1773231961388725200,13.978725341796874,0.5578489899635315,-6.5050458908081055,-14.401123046875
1773231961404718600,13.994718505859375,0.5913678407669067,-7.2568254470825195,-13.290213584899902
1773231961420739800,14.01073974609375,0.47884035110473633,-7.402871608734131,-12.780248641967773
1773231961436729300,14.026729248046875,0.17956513166427612,-7.16584587097168,-12.385205268859863
1773231961452722400,14.042722412109375,-0.1867477297782898,-6.830657482147217,-11.688492774963379
1773231961468713000,14.058712890625,-0.4357447028160095,-6.677428722381592,-10.939107894897461
1773231961484734200,14.074734130859374,-0.5530605912208557,-6.8043212890625,-10.438719749450684
1773231961500725000,14.09072509765625,-0.44771572947502136,-7.196970462799072,-9.679757118225098
1773231961516717600,14.106717529296875,-0.002394201699644327,-7.613561630249023,-9.030928611755371
1773231961532738000,14.122738037109375,0.2825157940387726,-7.979874134063721,-8.51138687133789
1773231961548728800,14.138728759765625,0.24660277366638184,-8.118738174438477,-8.051700592041016
1773231961564719600,14.1547197265625,0.1388636976480484,-8.192957878112793,-7.673416614532471
1773231961580711400,14.17071142578125,-0.033518824726343155,-8.252813339233398,-7.3023152351379395
1773231961596734000,14.18673388671875,-0.22026655077934265,-8.422801971435547,-7.156269073486328
1773231961612727600,14.2027275390625,-0.3232172429561615,-8.429984092712402,-6.718130111694336
1773231961628716800,14.218716796875,-0.6224924325942993,-8.166622161865234,-6.31829833984375
1773231961644706800,14.234706787109374,-1.2521674633026123,-7.975085735321045,-5.832275390625
1773231961660729000,14.25072900390625,-1.7142484188079834,-7.716512203216553,-5.03021764755249
1773231961676722400,14.266722412109376,-2.0638017654418945,-7.805097579956055,-4.534617900848389
1773231961692711400,14.28271142578125,-2.1475989818573,-8.058882713317871,-4.285621166229248
1773231961708734500,14.298734375,-2.054224967956543,-8.38449478149414,-4.084507942199707
1773231961724725000,14.31472509765625,-2.073378562927246,-8.451532363891602,-3.7014358043670654
1773231961740716000,14.330716064453124,-2.011129379272461,-8.530540466308594,-3.3494882583618164
1773231961756736800,14.34673681640625,-1.5825673341751099,-8.978256225585938,-3.514688014984131
1773231961768731400,14.3587314453125,-1.1109095811843872,-9.246406555175781,-3.8163576126098633
1773231961784723700,14.3747236328125,-0.2944868206977844,-9.334992408752441,-4.357447147369385
1773231961796716000,14.386716064453125,0.3016694188117981,-9.47146224975586,-4.991910457611084
1773231961812739000,14.402739013671875,0.9648633003234863,-9.040505409240723,-5.746084213256836
1773231961828728600,14.418728515625,1.216254472732544,-8.377311706542969,-6.873753070831299
1773231961844720400,14.434720458984375,1.2761094570159912,-7.682993412017822,-8.147468566894531
1773231961860710000,14.4507099609375,1.2689268589019775,-7.252037048339844,-9.464279174804688
1773231961876732200,14.466732177734375,1.05105459690094,-7.362170219421387,-10.307038307189941
1773231961892725000,14.48272509765625,0.5291185975074768,-7.668628215789795,-10.101137161254883
1773231961904718000,14.494718017578125,0.19393034279346466,-7.718906402587891,-9.502586364746094
1773231961924737300,14.5147373046875,-0.12210428714752197,-7.132327079772949,-8.482656478881836
1773231961940730000,14.530730224609375,-0.6584054827690125,-6.294356346130371,-8.001421928405762
1773231961956717800,14.5467177734375,-1.4532804489135742,-5.480327606201172,-8.030152320861816
1773231961972711200,14.562711181640625,-2.2912509441375732,-5.0900726318359375,-8.358158111572266
1773231961984735000,14.57473486328125,-2.7485435009002686,-5.099649429321289,-8.461109161376953
1773231962000726300,14.590726318359375,-2.8993782997131348,-5.305551052093506,-8.631096839904785
1773231962012721000,14.602720947265626,-2.7317841053009033,-5.683835029602051,-8.662221908569336
1773231962024712700,14.614712646484374,-2.3104045391082764,-5.918466567993164,-8.62630844116211
1773231962036736500,14.626736572265624,-1.86508309841156,-5.992686748504639,-8.631096839904785
1773231962052729300,14.642729248046875,-1.3503297567367554,-5.95677375793457,-9.071630477905273
1773231962068717600,14.658717529296876,-1.3742717504501343,-5.920860767364502,-9.701305389404297
1773231962084711000,14.6747109375,-1.3215993642807007,-5.758055210113525,-10.295066833496094
1773231962100731400,14.6907314453125,-1.1683704853057861,-5.5114521980285645,-10.81700325012207
1773231962116723200,14.70672314453125,-1.0893617868423462,-5.34625244140625,-11.17852783203125
1773231962132715300,14.72271533203125,-0.950498104095459,-5.013458251953125,-11.501745223999023
1773231962148735000,14.73873486328125,-0.9481038451194763,-4.355052947998047,-11.875240325927734
1773231962164727800,14.754727783203125,-1.1971008777618408,-4.039018154144287,-12.684480667114258
1773231962180717000,14.770717041015626,-1.2330138683319092,-3.950432777404785,-13.725957870483398
1773231962196708400,14.786708251953126,-1.070208191871643,-3.9456443786621094,-14.863204002380371
1773231962212731600,14.802731689453125,-0.828393816947937,-3.9432501792907715,-15.813702583312988
1773231962228723500,14.818723388671875,-0.7996633648872375,-3.5745432376861572,-15.98129653930664
1773231962244714800,14.83471484375,-0.7924807667732239,-3.268085241317749,-16.079458236694336
1773231962260735000,14.85073486328125,-0.7015010714530945,-4.194641590118408,-17.266983032226562
1773231962276726500,14.8667265625,-0.17956513166427612,-4.683058738708496,-17.68117904663086
1773231962292720000,14.88272021484375,-0.21787235140800476,-4.256890773773193,-17.037139892578125
1773231962308740400,14.898740234375,-1.2737152576446533,-3.6750996112823486,-16.385915756225586
1773231962324731400,14.9147314453125,-2.056619167327881,-3.6343982219696045,-15.820884704589844
1773231962340721400,14.930721435546875,-1.845929503440857,-4.197035789489746,-15.263035774230957
1773231962356712400,14.94671240234375,-1.357512354850769,-5.626373767852783,-15.061923027038574
1773231962372736300,14.962736328125,-1.0127472877502441,-7.1921820640563965,-14.894329071044922
1773231962388726800,14.978726806640625,-0.5506663918495178,-8.413225173950195,-14.630966186523438
1773231962404717000,14.994717041015624,-0.08619125932455063,-8.987833023071289,-14.283807754516602
1773231962420738000,15.010738037109375,0.019153613597154617,-8.995016098022461,-13.800178527832031
1773231962436731400,15.0267314453125,-0.1364694982767105,-8.621520042419434,-13.381193161010742
1773231962452722000,15.042721923828125,-0.2298433631658554,-8.358158111572266,-12.648567199707031
1773231962468712700,15.058712646484375,-0.10055647045373917,-8.312667846679688,-11.494562149047852
1773231962484734000,15.07473388671875,0.11971008777618408,-8.425195693969727,-10.225635528564453
1773231962500725200,15.090725341796874,0.49320554733276367,-8.504204750061035,-9.651026725769043
1773231962516716500,15.106716552734374,0.7350199222564697,-8.664615631103516,-9.215282440185547
1773231962532739600,15.122739501953125,0.6655880808830261,-8.667010307312012,-8.389283180236816
1773231962548728800,15.138728759765625,0.5841852426528931,-8.650250434875488,-7.577648162841797
1773231962564722200,15.15472216796875,0.47644615173339844,-8.662221908569336,-7.1251444816589355
1773231962580711200,15.170711181640625,0.31124621629714966,-8.465897560119629,-6.6127848625183105
1773231962596734500,15.186734375,0.304063618183136,-8.152256965637207,-5.868188381195068
1773231962612727300,15.202727294921875,0.3974374830722809,-7.970297336578369,-5.293580055236816
1773231962628716000,15.218716064453124,0.38307225704193115,-7.419631004333496,-4.683058738708496
1773231962644738000,15.234738037109375,0.10295066982507706,-7.003039836883545,-4.211400985717773
1773231962660728300,15.250728271484375,-0.1867477297782898,-6.766014099121094,-3.7397429943084717
1773231962676719600,15.2667197265625,-0.33758243918418884,-6.787561893463135,-3.5194764137268066
1773231962692712200,15.282712158203125,-0.4812345504760742,-6.988674640655518,-3.378218650817871
1773231962708732700,15.298732666015624,-0.6919242739677429,-7.187393665313721,-3.4739866256713867
1773231962724724200,15.31472412109375,-0.8547300100326538,-7.326257228851318,-3.227383852005005
1773231962740716300,15.33071630859375,-0.9864110946655273,-7.390900611877441,-2.9903578758239746
1773231962756737300,15.3467373046875,-1.05105459690094,-7.6111674308776855,-3.160346269607544
1773231962772729300,15.362729248046875,-0.8762778043746948,-7.790732383728027,-3.890577793121338
1773231962788721400,15.378721435546876,-0.7781155705451965,-7.692570209503174,-4.759673118591309
1773231962804711200,15.394711181640625,-0.7757213711738586,-7.757213592529297,-5.676652431488037
1773231962820733000,15.41073291015625,-0.7613561153411865,-7.508216381072998,-6.40927791595459
1773231962836723700,15.4267236328125,-0.871489405632019,-7.242460250854492,-7.692570209503174
1773231962852716500,15.442716552734375,-1.3311761617660522,-7.311892032623291,-8.990227699279785
1773231962868738600,15.458738525390626,-1.8124107122421265,-7.508216381072998,-9.955090522766113
1773231962884727800,15.474727783203125,-2.161964178085327,-7.922413349151611,-10.553641319274902
1773231962900718600,15.490718505859375,-2.1811177730560303,-8.40843677520752,-10.754754066467285
1773231962916710000,15.5067099609375,-1.764526605606079,-8.473079681396484,-10.565611839294434
1773231962932734200,15.522734130859375,-1.2521674633026123,-7.8745293617248535,-10.156203269958496
1773231962948723200,15.53872314453125,-0.9289502501487732,-6.809109687805176,-9.99339771270752
1773231962964714500,15.554714599609374,-0.8619126081466675,-5.616796970367432,-10.311826705932617
1773231962976709000,15.566709228515625,-1.05105459690094,-4.98472785949707,-10.45547866821289
1773231962988731400,15.5787314453125,-1.4867992401123047,-4.546588897705078,-10.536881446838379
1773231963004724000,15.594723876953125,-2.1787235736846924,-4.49870491027832,-10.311826705932617
1773231963016718800,15.60671875,-2.513911724090576,-4.69024133682251,-9.959878921508789
1773231963028710100,15.618710205078125,-2.6216509342193604,-4.900930881500244,-9.749189376831055
1773231963044733000,15.63473291015625,-2.477998733520508,-5.25527286529541,-9.713275909423828
1773231963060722700,15.65072265625,-1.8746598958969116,-5.406107425689697,-10.014945983886719
1773231963076715000,15.666715087890625,-1.4891934394836426,-5.415684223175049,-10.393229484558105
1773231963092738600,15.682738525390626,-1.259350061416626,-5.442020416259766,-10.876858711242676
1773231963108726500,15.6987265625,-1.1276689767837524,-5.262455463409424,-11.159374237060547
1773231963124719000,15.714718994140625,-1.0462661981582642,-4.917690277099609,-11.413159370422363
1773231963140708600,15.73070849609375,-0.9864110946655273,-4.371812343597412,-11.748347282409668
1773231963156731000,15.74673095703125,-1.0199298858642578,-3.77565598487854,-12.246341705322266
1773231963172724200,15.76272412109375,-1.292868971824646,-3.7277719974517822,-12.87362289428711
1773231963188713000,15.778712890625,-1.292868971824646,-3.936067581176758,-13.342885971069336
1773231963204734700,15.794734619140625,-0.9768342971801758,-4.055777549743652,-13.67807388305664
1773231963220726800,15.810726806640625,-0.6655880808830261,-4.086902141571045,-13.9462251663208
1773231963236718800,15.82671875,-0.586579442024231,-3.6607344150543213,-14.0635404586792
1773231963252710000,15.8427099609375,-0.727837324142456,-3.2800562381744385,-14.200010299682617
1773231963268731100,15.858731201171874,-0.7422025203704834,-4.134786128997803,-15.27979564666748
1773231963284722200,15.87472216796875,-0.20111294090747833,-4.920084476470947,-16.326061248779297
1773231963300713000,15.890712890625,0.44532153010368347,-4.752490520477295,-16.074670791625977
1773231963316736000,15.906736083984375,0.4118026793003082,-3.974374771118164,-15.298949241638184
1773231963332728000,15.92272802734375,-0.47884035110473633,-3.3446998596191406,-15.22472858428955
1773231963348717800,15.9387177734375,-1.2641384601593018,-3.4308910369873047,-15.512032508850098
1773231963364709000,15.954709228515625,-1.400607943534851,-4.213795185089111,-15.308526039123535
1773231963380730600,15.970730712890624,-1.3646949529647827,-5.451597213745117,-14.652514457702637
1773231963396723500,15.986723388671875,-1.1492167711257935,-6.653486728668213,-14.207192420959473
1773231963412715500,16.002715576171877,-0.7326257228851318,-7.4986395835876465,-13.974955558776855
1773231963428735500,16.018735595703124,-0.5602431893348694,-7.532158374786377,-13.48414421081543
1773231963444725000,16.03472509765625,-0.7230489253997803,-7.122750282287598,-12.811373710632324
1773231963460717000,16.050717041015623,-0.9959878921508789,-6.687005519866943,-12.179304122924805
1773231963476708400,16.066708251953123,-1.1013327836990356,-6.737283706665039,-11.480196952819824
1773231963492732000,16.08273193359375,-0.8164227604866028,-6.926425457000732,-10.247182846069336
1773231963508721400,16.098721435546874,-0.4381389021873474,-7.352593421936035,-9.433155059814453
1773231963524711700,16.114711669921874,0.021547814831137657,-7.864952564239502,-8.96149730682373
1773231963540733000,16.13073291015625,0.5889736413955688,-8.212111473083496,-8.480262756347656
1773231963556724700,16.146724853515625,0.6847416758537292,-8.293514251708984,-8.058882713317871
1773231963568719000,16.158718994140624,0.3998316824436188,-8.195352554321289,-7.778761386871338
1773231963580712400,16.17071240234375,0.016759412363171577,-8.180987358093262,-7.4770917892456055
1773231963592738600,16.182738525390626,-0.24420857429504395,-8.197746276855469,-6.993463039398193
1773231963608729300,16.198729248046874,-0.3663128614425659,-8.154650688171387,-6.4834980964660645
1773231963624719600,16.2147197265625,-0.38067805767059326,-7.996633529663086,-5.940014362335205
1773231963636711000,16.2267109375,-0.40462008118629456,-7.790732383728027,-5.60722017288208
1773231963652735700,16.24273583984375,-0.5363011956214905,-7.433996200561523,-5.329493045806885
1773231963668725500,16.2587255859375,-0.8331822156906128,-7.0988078117370605,-5.212177276611328
1773231963684715000,16.274715087890623,-1.2401964664459229,-7.094019412994385,-4.960785865783691
1773231963700737000,16.290737060546874,-1.3838485479354858,-7.33583402633667,-4.659116744995117
1773231963716727800,16.306727783203126,-1.414973258972168,-7.7213006019592285,-4.422090530395508
1773231963732722200,16.32272216796875,-1.4652514457702637,-7.960720539093018,-4.10366153717041
1773231963748713200,16.338713134765626,-1.4891934394836426,-8.118738174438477,-4.10366153717041
1773231963764735500,16.354735595703126,-1.522712230682373,-8.274360656738281,-4.371812343597412
1773231963780723500,16.370723388671873,-1.4221558570861816,-8.571242332458496,-4.618414878845215
1773231963796714800,16.38671484375,-0.9552865028381348,-8.774748802185059,-5.238513469696045
1773231963808710100,16.398710205078125,-0.6392518281936646,-8.908824920654297,-5.961562156677246
1773231963820734000,16.41073388671875,-0.5051765441894531,-8.729259490966797,-6.40927791595459
1773231963836723000,16.426722900390626,-0.26096799969673157,-8.339004516601562,-6.780379295349121
1773231963852716800,16.442716796875,0.13168109953403473,-7.750030994415283,-7.264008045196533
1773231963868737500,16.458737548828125,0.6320692300796509,-7.010222434997559,-8.374917984008789
1773231963884727300,16.474727294921873,0.47884035110473633,-6.6630635261535645,-9.761159896850586
1773231963900719600,16.4907197265625,0.3687070608139038,-6.658275127410889,-10.139444351196289
1773231963916712400,16.50671240234375,-0.09816227108240128,-7.0557122230529785,-9.402029991149902
1773231963932734200,16.522734130859376,-0.3926490843296051,-7.151480674743652,-8.556877136230469
1773231963948722700,16.53872265625,-0.5961562395095825,-6.670246124267578,-7.680599212646484
1773231963964715000,16.554715087890624,-1.0295066833496094,-5.975927352905273,-7.374141216278076
1773231963980736300,16.570736328125,-1.5107412338256836,-5.559336185455322,-7.8529815673828125
1773231963996726800,16.586726806640623,-1.9057846069335938,-5.384559631347656,-8.56645393371582
1773231964012720400,16.602720458984376,-1.9345149993896484,-5.475539207458496,-9.004592895507812
1773231964024712700,16.614712646484374,-1.7764976024627686,-5.623979568481445,-9.3828763961792
1773231964036737000,16.626737060546876,-1.4987702369689941,-5.791574001312256,-9.44991397857666
1773231964052728000,16.64272802734375,-1.0079588890075684,-6.064512729644775,-9.57201862335205
1773231964064721400,16.654721435546875,-0.7374141216278076,-6.100425720214844,-9.804255485534668
1773231964080713000,16.670712890625,-0.8930372595787048,-6.030993938446045,-10.584765434265137
1773231964092736500,16.682736572265625,-1.3072341680526733,-5.817910194396973,-11.252747535705566
1773231964108728000,16.69872802734375,-1.86508309841156,-5.363011837005615,-12.105083465576172
1773231964124729900,16.714729736328124,-2.205059766769409,-4.9583916664123535,-12.600683212280273
1773231964140752000,16.730751953125,-2.1763293743133545,-4.350264549255371,-12.583924293518066
1773231964156743000,16.746742919921875,-2.0254945755004883,-3.7229835987091064,-12.569559097290039
1773231964172736300,16.762736328125,-1.9488801956176758,-3.6511576175689697,-12.81855583190918
1773231964188725000,16.77872509765625,-1.8291701078414917,-3.754108190536499,-13.4506254196167
1773231964204748000,16.794748046875,-1.3766659498214722,-4.010287761688232,-13.852850914001465
1773231964220738600,16.810738525390626,-0.7948749661445618,-4.158728122711182,-14.113819122314453
1773231964236731400,16.8267314453125,-0.5722141861915588,-4.084507942199707,-14.415488243103027
1773231964252721700,16.8427216796875,-0.8954314589500427,-3.8594532012939453,-14.446613311767578
1773231964272742700,16.86274267578125,-1.721431016921997,-4.7189717292785645,-15.648502349853516
1773231964284733200,16.874733154296877,-1.6615760326385498,-5.233725070953369,-16.53435707092285
1773231964300726500,16.8907265625,-1.37906014919281,-4.9152960777282715,-16.977283477783203
1773231964316749000,16.9067490234375,-1.9991583824157715,-3.8714241981506348,-16.929399490356445
1773231964332739300,16.9227392578125,-2.985569477081299,-3.224989652633667,-17.01080322265625
1773231964348729900,16.938729736328124,-3.047818660736084,-3.6774938106536865,-16.838420867919922
1773231964360734000,16.95073388671875,-2.7126305103302,-4.69024133682251,-16.53435707092285
1773231964376745000,16.966744873046874,-2.2361843585968018,-6.524199485778809,-16.055517196655273
1773231964388739800,16.97873974609375,-1.8076223134994507,-7.63989782333374,-15.574281692504883
1773231964404729600,16.9947294921875,-1.139639973640442,-8.913613319396973,-14.844050407409668
1773231964420752100,17.010752197265624,-0.5482721924781799,-9.287108421325684,-13.974955558776855
1773231964436743000,17.026742919921876,-0.07661445438861847,-8.853757858276367,-12.715604782104492
1773231964452735200,17.0427353515625,0.2537853717803955,-8.22887134552002,-11.477803230285645
1773231964468727300,17.058727294921876,0.6919242739677429,-7.757213592529297,-10.295066833496094
1773231964484747500,17.07474755859375,1.048660397529602,-7.510610580444336,-9.239224433898926
1773231964500736800,17.09073681640625,1.235408067703247,-7.546523571014404,-8.530540466308594
1773231964516728600,17.106728515625,1.2689268589019775,-7.65186882019043,-8.157045364379883
1773231964532721400,17.122721435546875,1.161187767982483,-7.781155586242676,-7.486668586730957
1773231964548741000,17.1387412109375,0.9959878921508789,-7.754819393157959,-6.768408298492432
1773231964564733200,17.154733154296874,0.7398083209991455,-7.783549785614014,-6.299144744873047
1773231964580724500,17.170724365234374,0.4644751250743866,-7.687781810760498,-5.803544998168945
1773231964596745700,17.186745849609373,0.3926490843296051,-7.65186882019043,-5.34625244140625
1773231964612739300,17.2027392578125,0.2825157940387726,-7.654263019561768,-4.965574264526367
1773231964628729000,17.21872900390625,0.07182604819536209,-7.467514991760254,-4.496310710906982
1773231964644750800,17.234750732421876,-0.17477671802043915,-7.161057472229004,-4.20421838760376
1773231964660741000,17.2507412109375,-0.5267243981361389,-6.959944248199463,-4.1874589920043945
1773231964676734500,17.266734375,-0.8954314589500427,-7.043741226196289,-4.458003520965576
1773231964692725800,17.282725830078125,-1.1827356815338135,-7.331045627593994,-4.592078685760498
1773231964708745700,17.298745849609375,-1.2090718746185303,-7.623138427734375,-4.616020679473877
1773231964724736500,17.314736572265623,-1.0893617868423462,-7.893682956695557,-4.642356872558594
1773231964736732400,17.326732421875,-0.8906430602073669,-7.979874134063721,-4.60165548324585
1773231964748723200,17.33872314453125,-0.5051765441894531,-8.022970199584961,-4.778826713562012
1773231964764745200,17.3547451171875,-0.10534487664699554,-8.40843677520752,-5.4659624099731445
1773231964780736000,17.370736083984376,0.2346317619085312,-8.779537200927734,-5.858611583709717
1773231964792732000,17.38273193359375,0.5195417404174805,-8.875306129455566,-6.023811340332031
1773231964804723500,17.394723388671874,0.6799532771110535,-8.901641845703125,-6.217741966247559
1773231964820746200,17.410746337890625,0.6655880808830261,-8.588001251220703,-6.196194171905518
1773231964836736000,17.426736083984373,0.5961562395095825,-7.999027729034424,-6.782773494720459
1773231964852728000,17.44272802734375,0.3758896589279175,-7.364564418792725,-8.13789176940918
1773231964868748300,17.458748291015624,-0.026336219161748886,-6.9024834632873535,-9.41400146484375
1773231964884741000,17.4747412109375,-0.7589619159698486,-6.840234279632568,-10.120290756225586
1773231964900732400,17.490732421875,-1.3742717504501343,-7.208941459655762,-10.259154319763184
1773231964916722700,17.50672265625,-1.6543933153152466,-7.462726593017578,-9.770736694335938
1773231964932745500,17.522745361328123,-1.7142484188079834,-7.041347026824951,-8.808267593383789
1773231964948736800,17.53873681640625,-1.8195933103561401,-6.248866558074951,-7.975085735321045
1773231964964727300,17.554727294921875,-2.0422539710998535,-5.3797712326049805,-7.910442352294922
1773231964980750000,17.57075,-2.121262788772583,-4.754884719848633,-8.638279914855957
1773231964996739600,17.586739501953126,-2.1356279850006104,-4.513070106506348,-9.581595420837402
1773231965012733400,17.6027333984375,-2.3989901542663574,-4.637568473815918,-9.569623947143555
1773231965028723200,17.61872314453125,-2.427720546722412,-5.061342239379883,-8.803479194641113
1773231965044744000,17.634743896484373,-1.98958158493042,-5.427655220031738,-8.221688270568848
1773231965060735200,17.6507353515625,-1.3239935636520386,-5.705382823944092,-8.401253700256348
1773231965076727600,17.6667275390625,-0.8906430602073669,-5.640739440917969,-8.880094528198242
1773231965088751600,17.678751708984375,-0.9792284965515137,-5.56173038482666,-9.481039047241211
1773231965100743700,17.69074365234375,-1.0534487962722778,-5.56173038482666,-10.022128105163574
1773231965116734700,17.706734619140626,-1.1204863786697388,-5.3342814445495605,-10.663774490356445
1773231965132727300,17.722727294921874,-1.292868971824646,-5.116408824920654,-10.934319496154785
1773231965148748300,17.738748291015625,-1.4891934394836426,-4.721365928649902,-11.018115997314453
1773231965164739000,17.754739013671873,-1.7836803197860718,-4.5394062995910645,-11.489773750305176
1773231965176734700,17.766734619140625,-1.8148049116134644,-4.594472885131836,-12.176909446716309
1773231965192726300,17.782726318359376,-1.5729905366897583,-4.661510944366455,-13.385981559753418
1773231965204750300,17.794750244140626,-1.3096283674240112,-4.790797710418701,-14.113819122314453
1773231965220739600,17.810739501953126,-1.01753568649292,-4.920084476470947,-14.561534881591797
1773231965236730400,17.82673046875,-1.036689281463623,-4.908113479614258,-14.640542984008789
1773231965252724000,17.842723876953126,-1.434126853942871,-5.442020416259766,-15.392322540283203
1773231965268745700,17.858745849609374,-1.479616641998291,-6.517016887664795,-16.555904388427734
1773231965284734500,17.874734375,-0.8475474119186401,-6.866570472717285,-16.94855308532715
1773231965300727000,17.89072705078125,-1.0558429956436157,-5.556941986083984,-16.27817726135254
1773231965316747300,17.906747314453124,-2.1787235736846924,-4.019864559173584,-15.682021141052246
1773231965332739000,17.922739013671876,-2.6024973392486572,-3.469198226928711,-16.148889541625977
1773231965348731400,17.9387314453125,-2.4660277366638184,-4.086902141571045,-16.081851959228516
1773231965364752600,17.954752685546875,-2.140416383743286,-5.418078422546387,-15.155296325683594
1773231965380742400,17.970742431640623,-1.644816517829895,-6.63433313369751,-13.843274116516113
1773231965396736000,17.986736083984376,-1.0893617868423462,-7.560888767242432,-12.801796913146973
1773231965412727600,18.0027275390625,-0.5650315880775452,-7.833827972412109,-11.93748950958252
1773231965428749600,18.01874951171875,-0.14604631066322327,-7.5848307609558105,-11.104307174682617
1773231965444740000,18.034739990234375,0.009576806798577309,-7.16584587097168,-10.412383079528809
1773231965460731100,18.050731201171875,0.31364041566848755,-6.821080684661865,-9.615114212036133
1773231965476722400,18.066722412109375,0.6200982332229614,-6.636727333068848,-8.813055992126465
1773231965492743700,18.08274365234375,0.790086567401886,-6.636727333068848,-8.259995460510254
1773231965508733200,18.098733154296873,0.608127236366272,-6.847416877746582,-7.838616371154785
1773231965524725200,18.114725341796873,0.4908113479614258,-6.97430944442749,-7.4986395835876465
1773231965540747800,18.130747802734376,0.6009446382522583,-7.036558628082275,-7.2113356590271
1773231965556738000,18.146738037109376,0.5530605912208557,-7.225700855255127,-6.94079065322876
1773231965572728300,18.162728271484376,0.43095630407333374,-7.338228225708008,-6.708553314208984
1773231965588721200,18.17872119140625,0.2801215946674347,-7.668628215789795,-6.598419666290283
1773231965604743200,18.1947431640625,0.15083470940589905,-7.999027729034424,-6.471527099609375
1773231965620733000,18.21073291015625,0.0454898327589035,-8.061277389526367,-6.301538944244385
1773231965636725200,18.226725341796875,-0.27054479718208313,-8.164227485656738,-6.301538944244385
1773231965652747800,18.242747802734375,-0.6368576288223267,-8.17141056060791,-6.342240333557129
1773231965668739800,18.25873974609375,-1.1037269830703735,-8.403648376464844,-6.1770405769348145
1773231965684729000,18.27472900390625,-1.2521674633026123,-8.793902397155762,-5.681440830230713
1773231965700752000,18.290751953125,-0.8188169598579407,-9.21288776397705,-5.214571475982666
1773231965716741000,18.3067412109375,-0.10534487664699554,-9.437943458557129,-4.81473970413208
1773231965732734000,18.32273388671875,0.6967126727104187,-9.334992408752441,-4.460397720336914
1773231965748723500,18.338723388671873,1.2665326595306396,-9.299078941345215,-4.424484729766846
1773231965764745700,18.354745849609376,1.5394717454910278,-9.29189682006836,-4.3861775398254395
1773231965780737500,18.370737548828124,1.6376339197158813,-9.186552047729492,-4.55616569519043
1773231965796729300,18.386729248046876,1.4245500564575195,-8.904036521911621,-4.95120906829834
1773231965812750800,18.402750732421875,1.2066776752471924,-8.367734909057617,-5.386953830718994
1773231965828742700,18.41874267578125,1.158793568611145,-7.800309181213379,-6.112396717071533
1773231965840736300,18.430736328125,1.1085153818130493,-7.41484260559082,-6.866570472717285
1773231965852728600,18.442728515625,0.9265560507774353,-7.15387487411499,-7.752425193786621
1773231965868751000,18.458751220703125,0.44532153010368347,-7.084442615509033,-8.492233276367188
1773231965884740600,18.47474072265625,-0.10773907601833344,-7.24485445022583,-8.777143478393555
1773231965900733700,18.490733642578125,-0.5482721924781799,-7.242460250854492,-8.628703117370605
1773231965916724500,18.506724365234376,-0.8571242094039917,-6.818686485290527,-8.08043098449707
1773231965932746000,18.52274609375,-1.139639973640442,-6.107608318328857,-7.594407558441162
1773231965948737500,18.538737548828124,-1.5849615335464478,-5.4875102043151855,-7.637503623962402
1773231965964729000,18.55472900390625,-2.2170307636260986,-5.099649429321289,-8.10437297821045
1773231965980748800,18.570748779296874,-2.6791117191314697,-5.0254292488098145,-8.609549522399902
1773231965996740400,18.586740234375,-2.9496564865112305,-5.272032260894775,-8.777143478393555
1773231966012733000,18.60273291015625,-2.8778305053710938,-5.556941986083984,-8.540117263793945
1773231966028724000,18.618723876953126,-2.5498247146606445,-5.801150798797607,-8.508993148803711
1773231966044744400,18.634744384765625,-2.346317768096924,-6.081272125244141,-8.904036521911621
1773231966060735500,18.650735595703125,-2.5282769203186035,-6.138733386993408,-9.531316757202148
1773231966076726800,18.666726806640625,-2.765302896499634,-5.868188381195068,-10.249577522277832
1773231966092750600,18.68275048828125,-3.050212860107422,-5.492298603057861,-11.168951034545898
1773231966108741400,18.698741455078125,-3.095702886581421,-5.044582843780518,-12.016498565673828
1773231966124731400,18.7147314453125,-2.868253707885742,-4.639962673187256,-12.76109504699707
1773231966140725200,18.730725341796877,-2.937685489654541,-4.084507942199707,-13.376404762268066
1773231966156743400,18.746743408203123,-3.315969467163086,-3.620033025741577,-14.058752059936523
1773231966172736000,18.762736083984375,-3.687070608139038,-3.35667085647583,-14.860810279846191
1773231966188728000,18.77872802734375,-3.732560396194458,-3.318363666534424,-15.140931129455566
1773231966204750000,18.79475,-3.4596214294433594,-3.428496837615967,-15.107412338256836
1773231966220738800,18.81073876953125,-3.1100680828094482,-3.6128504276275635,-14.911087989807129
1773231966236732200,18.826732177734375,-2.7437551021575928,-4.532223701477051,-15.46414852142334
1773231966252724200,18.84272412109375,-2.2673089504241943,-6.208165168762207,-16.814477920532227
1773231966268745000,18.858744873046874,-1.3192051649093628,-6.952761650085449,-17.293319702148438
1773231966284736800,18.87473681640625,-0.730231523513794,-6.19379997253418,-16.364368438720703
1773231966300726800,18.890726806640625,-1.091755986213684,-5.207388877868652,-15.119383811950684
1773231966316747300,18.906747314453124,-1.4700398445129395,-5.013458251953125,-14.903905868530273
1773231966332740900,18.922740966796876,-1.6112977266311646,-5.669469833374023,-15.258247375488281
1773231966348731000,18.93873095703125,-0.751779317855835,-7.240066051483154,-15.40668773651123
1773231966360726500,18.9507265625,-0.2322375625371933,-8.22887134552002,-15.01164436340332
1773231966372750300,18.962750244140626,0.11971008777618408,-9.062053680419922,-14.415488243103027
1773231966388738600,18.978738525390625,0.5099649429321289,-9.701305389404297,-13.424288749694824
1773231966404730000,18.994730224609373,0.912190854549408,-9.423578262329102,-12.251130104064941
1773231966420752400,19.01075244140625,1.2497732639312744,-8.786720275878906,-10.960655212402344
1773231966436743700,19.02674365234375,1.414973258972168,-8.063671112060547,-9.859322547912598
1773231966452735000,19.04273486328125,1.4197616577148438,-7.5968017578125,-9.059659004211426
1773231966468725500,19.0587255859375,1.2521674633026123,-7.393294811248779,-8.267178535461426
1773231966484746500,19.07474658203125,1.113303780555725,-7.3454108238220215,-7.572859764099121
1773231966500740400,19.090740234375,0.9409212470054626,-7.237671852111816,-7.015010833740234
1773231966516731600,19.106731689453124,0.6847416758537292,-7.089231014251709,-6.45476770401001
1773231966532723200,19.12272314453125,0.6488286852836609,-7.074865818023682,-5.710171222686768
1773231966548745000,19.138744873046875,0.6272808313369751,-6.947973251342773,-5.056553840637207
1773231966564736300,19.154736328125,0.47884035110473633,-7.036558628082275,-4.766855716705322
1773231966580724500,19.170724365234374,0.3734954595565796,-6.919242858886719,-4.620809078216553
1773231966596747300,19.186747314453125,0.1388636976480484,-6.828263282775879,-4.508281707763672
1773231966612740600,19.20274072265625,-0.2777273952960968,-6.888118267059326,-4.508281707763672
1773231966628731000,19.21873095703125,-0.5793967843055725,-6.912060260772705,-4.2951979637146
1773231966644752600,19.234752685546876,-0.9744400978088379,-7.204153060913086,-4.32871675491333
1773231966660741600,19.25074169921875,-1.1204863786697388,-7.671022415161133,-4.599261283874512
1773231966676733200,19.266733154296876,-0.8643068075180054,-8.063671112060547,-4.967968463897705
1773231966692726500,19.2827265625,-0.6584054827690125,-8.24084186553955,-5.365406036376953
1773231966708747500,19.29874755859375,-0.45489832758903503,-8.341399192810059,-5.4444146156311035
1773231966724737500,19.314737548828123,-0.019153613597154617,-8.38449478149414,-5.370194435119629
1773231966740728300,19.330728271484375,0.629675030708313,-8.614337921142578,-5.43723201751709
1773231966756751400,19.34675146484375,1.1109095811843872,-8.813055992126465,-5.559336185455322
1773231966772743200,19.3627431640625,1.1228805780410767,-8.779537200927734,-5.870582580566406
1773231966788734500,19.378734375,0.6943184733390808,-8.516175270080566,-6.361393928527832
1773231966804723500,19.394723388671874,0.3256114423274994,-7.982268333435059,-6.912060260772705
1773231966816749000,19.4067490234375,0.12689268589019775,-7.716512203216553,-7.546523571014404
1773231966828741000,19.4187412109375,-0.12449848651885986,-7.3885064125061035,-8.315062522888184
1773231966844732200,19.434732177734375,-0.40940847992897034,-7.230489253997803,-9.244012832641602
1773231966860725000,19.45072509765625,-0.8307880163192749,-7.321468830108643,-9.718064308166504
1773231966876746500,19.46674658203125,-1.1971008777618408,-7.671022415161133,-9.909601211547852
1773231966892739000,19.482739013671875,-1.3694833517074585,-7.783549785614014,-9.59835433959961
1773231966908727800,19.498727783203126,-1.3024457693099976,-7.376535415649414,-8.834604263305664
1773231966924749800,19.514749755859373,-1.0678139925003052,-6.440402507781982,-8.20732307434082
1773231966940740900,19.530740966796873,-1.1563993692398071,-5.583278179168701,-8.33182144165039
1773231966956732400,19.546732421875,-1.53707754611969,-5.169081687927246,-8.925583839416504
1773231966972726300,19.562726318359374,-2.0470423698425293,-5.078101634979248,-9.397241592407227
1773231966988747000,19.5787470703125,-2.2888567447662354,-5.2696380615234375,-9.17697525024414
1773231967004738800,19.59473876953125,-2.145204782485962,-5.389348030090332,-8.81784439086914
1773231967020727300,19.610727294921876,-1.9393033981323242,-5.537788391113281,-8.841787338256836
1773231967036748800,19.626748779296875,-1.7980455160140991,-5.578489780426025,-9.07641887664795
1773231967052743700,19.64274365234375,-1.5466543436050415,-5.48272180557251,-9.885659217834473
1773231967064735000,19.65473486328125,-1.5179238319396973,-5.3127336502075195,-10.582371711730957
1773231967076727000,19.66672705078125,-1.6543933153152466,-5.20978307723999,-11.037269592285156
1773231967092750300,19.682750244140625,-1.7334020137786865,-4.99669885635376,-11.343728065490723
1773231967108739600,19.698739501953124,-1.6855180263519287,-4.675876140594482,-11.456254959106445
1773231967120734700,19.710734619140624,-1.522712230682373,-4.388571739196777,-11.654973983764648
1773231967132728600,19.722728515625,-1.3048399686813354,-4.1874589920043945,-11.973402976989746
1773231967148748300,19.738748291015625,-1.1563993692398071,-4.129997730255127,-12.60307788848877
1773231967164740600,19.75474072265625,-1.0845733880996704,-4.285621166229248,-13.275848388671875
1773231967180731600,19.770731689453125,-0.9385270476341248,-4.51067590713501,-13.819332122802734
1773231967196722400,19.786722412109373,-0.8331822156906128,-4.513070106506348,-14.008474349975586
1773231967212746800,19.802746826171877,-1.0031704902648926,-4.412513732910156,-14.279019355773926
1773231967228736300,19.818736328125,-1.3862427473068237,-4.505887508392334,-15.2151517868042
1773231967244728800,19.834728759765625,-1.968033790588379,-5.389348030090332,-16.728286743164062
1773231967260750800,19.850750732421876,-2.1954829692840576,-5.928043365478516,-17.6332950592041
1773231967276739600,19.866739501953123,-2.5522189140319824,-5.386953830718994,-17.108964920043945
1773231967292731600,19.882731689453124,-3.4620156288146973,-4.618414878845215,-15.928624153137207
1773231967308723700,19.8987236328125,-4.1180267333984375,-4.479551315307617,-15.454571723937988
1773231967324745500,19.914745361328126,-3.804386615753174,-4.99669885635376,-15.533580780029297
1773231967340735700,19.93073583984375,-3.0358476638793945,-6.356605529785156,-15.507244110107422
1773231967356726000,19.94672607421875,-2.5785553455352783,-7.702147006988525,-15.076288223266602
1773231967372748500,19.96274853515625,-1.9800047874450684,-9.117119789123535,-14.554351806640625
1773231967388739300,19.9787392578125,-1.256955862045288,-9.856928825378418,-13.893552780151367
1773231967404730600,19.994730712890625,-0.5003881454467773,-9.897629737854004,-12.868834495544434
1773231967420753000,20.0107529296875,0.1388636976480484,-9.428366661071777,-11.70046329498291
1773231967436745700,20.026745849609377,0.507570743560791,-8.868123054504395,-10.63743782043457
1773231967452736500,20.042736572265625,0.8643068075180054,-8.497021675109863,-9.605537414550781
1773231967468727000,20.05872705078125,1.0558429956436157,-8.365341186523438,-8.59997272491455
1773231967484749800,20.074749755859376,1.1563993692398071,-8.20492935180664,-7.65186882019043
1773231967500740000,20.090739990234376,1.0247182846069336,-8.123526573181152,-7.0126166343688965
1773231967516732200,20.106732177734376,1.1252747774124146,-8.034940719604492,-6.313509941101074
